index,elapse_time,susp_fl,susp_fr,susp_rl,susp_rr,acc_x,acc_y,acc_z,rot_x,rot_y,rot_z
0,0,-0.00959022273625747,-0.003202895170406709,0.016745728072269695,0.00809817922068178,0.022140778186805186,-0.04528778801920288,9.489560087613874,-0.02528447867064295,0.002619246665364441,-0.04185596379767898
1,10,0.009455889731137819,0.009925810781403319,0.0022226566595312056,0.005356290665695914,-0.028425420563524796,-0.0023043764331036687,9.700141407030777,-0.006104183339854096,-0.02052705727238201,-0.006976923396925232
2,20,0.02580713240557264,-0.011255966112429851,0.012024988522361517,0.01396341588014399,0.047258606963383104,0.012529482166371937,9.73066719446525,-0.014391767971659506,-0.017257579473328347,0.0019274510601020034
3,30,0.01825215063448321,0.007480901362201236,0.013114921808960067,-0.009460073413320641,-0.24549739687735708,-0.18317162039599905,9.733330661920021,-0.03406368922655524,0.019135944765930328,-0.014194746512698253
4,40,0.026652332947043965,0.009265810781606022,-0.004299189735151908,0.007343672409037003,0.037672575163957875,-0.03371849667335057,9.795027435680304,-0.031093663617666353,-0.012136200037430253,0.0355696367548723
5,50,0.007301040016502796,0.004959349076202674,-0.00040648144824749965,0.009907483517523422,0.036037074643439346,-0.06554205475764403,9.844022674145162,0.008136315043584414,0.004628750959408831,-0.0047017234019613935
6,60,0.02034245684887341,-0.006109877794558581,0.008633347342682618,0.00691096181456276,0.07476124846705184,0.10651710350474604,9.693141117963545,0.0026694205097493847,0.0008180949490922025,0.04406958318285968
7,70,0.016253545510505528,0.0014692784851087206,0.0018091543046148094,0.0018052601360132783,0.11428670695911528,-0.019504668686212295,9.787401885942103,-0.00016497414349288426,-0.003887276651925024,-0.024951657745863772
8,80,0.007474895148986315,0.005029861650114556,0.01855634616806602,0.01767821732163375,0.014411709064664593,0.07718882498820051,9.804806496233553,0.004452371884946155,-0.003865110572055671,-0.02435649872412939
9,90,0.012814044936001823,0.02499335409284395,0.028501182321142123,0.019841199826439504,-0.09312629206682209,-0.014661849940129822,9.994381005121296,0.02451151679010831,0.002024592229099252,0.004995721788297764
10,100,0.027724306902725267,0.026791684857207197,0.021492045487312598,-0.012870139668161616,0.003743491625671041,0.06947652999744325,9.916322769042656,-0.025212520163549006,-0.002729268657805951,0.04667833434094297
11,110,0.03611325252822499,0.019364107888051547,0.025634014495069468,0.02753921557067692,-0.14136603396586864,-0.10275297526020125,9.497460966370179,-0.008192185022212584,0.004505391390213651,0.04496908199370013
12,120,0.028393705931114954,0.01603532421426622,0.027996304073320995,0.011100437556304264,-0.087175796637914,-0.030792728763305556,10.295393820244916,0.008435440462801144,0.004538607611173272,0.014974094009435918
13,130,0.023724062583953764,0.020360859004813818,0.024263525947317607,0.029352188639077296,0.07904551551776917,0.0033230296594506034,9.796270575926235,0.03243524343414435,0.011168340323834382,-0.0145876942510102
14,140,0.0005874987073149415,0.013284625676447837,0.01376820776578603,-0.006062327365957888,0.02692693579040785,0.15437313185552515,9.673928082189844,0.023127822012609878,0.0016280521140829016,0.03482815057016765
15,150,0.024666864696794636,0.015281701190080686,0.035326650096086286,0.02566314526173088,-0.01835519141371591,0.10314776328700812,10.290622199095738,0.053623769301385474,0.014772849842451233,0.006633434098498734
16,160,0.020859102815737423,0.0028525665250098784,0.034652183282515604,0.02126194127637122,0.05561101868269202,-0.009454440844215789,10.049128536387052,0.0362985643893498,0.016824206014396107,-0.047930526354952756
17,170,0.026258530360713964,0.025884678217203087,0.033436060496541735,0.02959820014776646,0.10721811328544265,-0.061932400348849684,9.637334412058461,0.019942303892129087,0.015428964847755237,0.05198446347128803
18,180,0.021875437122308446,0.0014205688467682758,0.022123715644079306,0.01954180814022241,0.2337003691831645,0.05511330939237718,10.275789148106545,0.047402974952664004,0.010847137746920664,0.010503532293711239
19,190,0.01653473681551663,-0.0019901560148930207,0.022395223585043974,0.003329567666439891,-0.0882917715212965,0.01623202120715627,9.989617030416024,-0.034188792993329595,0.011569144017075797,-0.01280359438251285
20,200,0.011058787139822421,0.024160478990196906,0.016577492304831923,0.03227708501586176,0.20378852881211737,0.03406152839854505,9.870289173054397,0.024211211212948492,0.0043084535332641215,0.02579934367627671
21,210,0.021807698126225912,0.021366393384961466,-0.0017395798467030842,0.028829956316882576,-0.040342529858252256,0.05881510033437659,9.978992846933961,0.038098025889586704,-0.00015014181740259126,0.0033758577926715286
22,220,0.017831772897801888,0.006137529768316185,-0.006395901996194352,0.00289231765796903,0.1533694586756705,0.013795590717749273,9.732522798958497,0.005423390718749026,-0.0015470192352460659,0.018327966238488487
23,230,0.01104233797634759,0.009256881050797165,0.00020740971681193314,0.0008240815621833669,0.18438147427338,0.1365583733129384,10.104543421599947,0.06888585615622123,0.0070594221735109635,-0.005838698380870828
24,240,0.018176017769227726,-2.6027362694133922e-05,0.0204049125003394,0.009425999907153522,0.10167751568033928,-0.003184625160528101,9.934710017593911,0.009019299091826753,0.018171123605013037,0.054653722417333406
25,250,0.021910310374419074,0.021699233557287975,0.015087399342665784,0.018886906939288746,0.027638156818125106,-0.10655897834041587,9.627367797236126,0.022696513677265936,0.02674211526479755,-0.010394527934303923
26,260,0.035319613225569244,0.0030982976323502137,0.022750455046592594,0.027383977380896447,0.03152352190278014,0.08689341889402012,10.177494853967607,0.0038515781348893163,0.008860297021405587,0.021867586568302563
27,270,0.021221029859377634,0.017934360332755257,0.03462671903065713,0.020177800423523826,0.035457402057987406,0.16686173596769238,9.921499492592721,-0.03853044194436996,0.009583689216028361,0.04074559696143154
28,280,0.02366560961860257,0.00297108640046634,0.025226103104539474,0.03189707928750628,0.09865427928758114,0.07705694253725731,10.509331385520897,0.043289722808640976,0.0038072038030779153,0.03395585807518254
29,290,0.011898944488027155,-0.010129503128709106,-0.008756680434544886,-0.0029570541608536466,0.0818788788959684,0.20748921384514604,9.678060826221829,0.03288440639297405,0.003144315464796977,0.03264717004399881
30,300,0.016445283429402782,-0.01001332132112314,0.023028637131164466,-0.01746628673486937,0.3121454373372051,0.16358288445138466,10.08122163208131,0.01776809580113784,0.01317879187038548,-0.0030391430682274664
31,310,0.0265984774786428,0.014709360451433857,0.007623850521277299,-0.009290044628238901,0.09970523046303248,0.22716051995587322,9.734227460465252,0.05200942337712209,0.022355280975702854,0.046475135756714664
32,320,0.007646872898635281,0.01787937667528881,0.014746520539678,0.01425131054559271,0.21196104523400527,0.3136385272597379,10.043392058606564,0.038640631993181684,0.001357411944814797,0.059149226035547536
33,330,0.0068991352708287915,-0.005158470430966016,0.03421306238140807,-0.005430577909084265,0.27117254514130307,0.12406586570788807,10.042742773002356,0.032534036753858554,0.020534245621896072,0.017226427717619175
34,340,0.019286712674979826,-0.002595843429156059,0.008345316553778709,0.00026006698126411227,-0.034125742928118555,0.08552360156354213,10.102706003670272,0.040980289187823676,-0.005787100612089462,0.06503412205247466
35,350,0.024995557549699756,0.018364564720332526,0.0071047426269808655,-0.0028058468510968352,0.012702072967279904,0.16130115376483425,9.979131982646377,0.0625843238549029,0.01581265684694777,0.04768964511412764
36,360,0.007407342514460836,-0.009738944023958428,0.013244112843569196,0.010723867551781396,0.14412484937202602,0.052316222687005004,10.226289783844898,0.02297125720178748,0.00548500842005434,0.01863503276947253
37,370,0.014906643484014576,0.008202283081537053,0.0103699982245272,0.003404118001088324,0.07155707529470909,0.16003447633911883,10.13941485346566,0.038015990856739706,0.02780175391400952,0.08679538534062331
38,380,0.014067522142401362,0.007803441473504468,0.009137179351744702,0.0031389600153212075,0.09826521741799196,-0.042412830474401544,10.21489296973947,-0.0022602986986552734,-0.0031764815595366584,0.047051910355092603
39,390,0.02776813134164142,0.005910284191257807,0.01231588336413062,0.007426674426986402,0.129600139614871,0.09204862190041524,9.914377424800922,0.02241273128849878,0.006730235024288845,-0.009886791348129038
40,400,0.018208102577865613,0.009976744991350508,0.02069497917096486,0.014204668075793691,0.11605090312332492,0.1087717319386736,10.284526870586657,0.03317979584613421,0.01127700192533902,0.035835832726712626
41,410,0.031276287737665755,0.004799365747985383,0.033085652098307244,-0.002281604750139698,0.03990768429389345,0.15672763080188962,10.313013362706442,0.0728770769032478,0.02100439393898875,0.07203451089279858
42,420,0.03823671091095332,0.007236117527726955,0.014082304181462143,0.014026956951801927,0.16841005162365869,0.1317511655166813,9.934082348427866,0.08830747743561382,0.035802336875529375,0.038896206031152555
43,430,0.029141241400301783,0.0057458245723823855,0.026150232037647943,0.001685623680213787,0.07537556867027664,0.15912541432690622,10.044866233672137,0.06865747121580479,0.007244749528726481,0.03751794005391652
44,440,0.024466081919661126,-0.004566817684524988,0.011745111691793014,0.005537330691168843,0.06125212816730545,0.32219325849652913,10.013920449841498,0.07367123955354271,0.018276056848599464,0.026837936751683666
45,450,0.0034368918928541544,-0.0026619981655073436,0.00797756613635593,0.007520404839688191,0.14445260855476474,0.16860042510800718,10.050543751762511,0.01730160067920259,0.04082035765568917,0.031799923975399935
46,460,0.024035883671711576,0.010146255240500451,0.018694667273508644,-0.014849630402887646,0.06452236875881281,0.059531312259350294,10.181906176408603,0.054647411400237704,0.03982390051183759,0.023799934622694398
47,470,0.025483838670070993,-0.013737000102875077,0.014527239804244493,0.009262848910431457,0.1090651558482376,0.12092505132556249,10.095715040031974,0.058417443060756684,0.024940610582141767,0.014290551678217852
48,480,0.018635933343976382,0.002686963693426076,0.03251403238975262,0.015106111504117753,0.19349190732019858,0.3265375584785618,10.052570014514425,0.04452073646939085,0.019211550730764304,0.026900379842735668
49,490,0.01541195427368513,-0.008721094570749611,0.019340207204319174,0.02367244802326686,0.2303081613442372,0.2678656581422141,9.861933465755785,0.05204112167597805,0.037452692223157405,0.0604288379434094
50,500,0.02367354255545561,0.007492125702400133,0.024093314009125167,0.022709487017411753,0.2932979469555805,0.3050693567678754,9.929742747464202,0.08431370463689651,0.012361556676854131,0.011336380503258525
51,510,0.019096198091004157,0.0038862540247976956,0.02150728108448519,0.016948419106768902,0.13942293686893636,0.2945671181998317,10.213723881690003,0.055162894182927504,0.01868143800567194,0.06290621263352628
52,520,0.02811585759983043,0.008868276370600059,0.0244918511568305,0.006362861836581239,0.13534431095146046,0.17320738298404906,9.849217700953503,0.07123243060271982,0.0056841092560005885,-0.017752355404865618
53,530,0.029290416731749164,0.02276095161898452,0.04632009900954291,0.01604348221602128,0.13054143674500662,0.17664239962406383,10.327683384067122,0.0741856946777158,0.020071707612744384,0.03565895715515859
54,540,0.030692028995005574,0.01794735004683979,0.03261652804988288,0.013436321795777289,0.1797262024321291,0.07945415521640076,10.22425190645353,0.058292557595536046,0.026415527277037908,0.05004328763115029
55,550,0.03604127976236622,0.01619346997011769,0.017290509641557338,0.008597233483636366,0.1345062215694343,0.238070702811351,10.374286901899575,0.04648738265117909,0.033973969690758325,0.014754711683135038
56,560,0.03676173136568295,0.010104902573186468,0.04063226127854679,0.027419725119531377,0.14821597039228182,0.12826630320944352,10.26627980087149,0.08172364361969578,0.01340531900219891,0.047860996005978734
57,570,0.0540796386335758,0.01446123997332263,0.03392254860102236,0.017992025288137932,0.03828987752217616,0.25324041605199255,9.899052629206858,0.05276296060003306,0.024790021831024838,0.03181981228722683
58,580,0.039761838015683545,0.012155082341232165,0.02220918674148671,-0.006852831346394882,0.1236507738346776,0.3531406432290479,10.151791660342836,0.07472172859146733,0.02223248100645322,0.07083305154902728
59,590,0.05100865331269894,0.007789318925454643,0.05393141632388263,0.04000010302851453,0.2527966280432918,0.0012646014722048626,10.044637136484727,0.039437580992803825,0.018770097194201512,0.04951325257780716
60,600,0.029673976553971863,0.005479743553548511,0.03236495392376009,0.012323108440878841,0.3312245326588812,0.25828970173318855,10.160522724269608,0.03591620932778304,0.024610577222357256,0.05917800161558502
61,610,0.05463715797714672,0.009031214036760342,0.038028828336136314,0.03194438387624832,0.08700097785584344,0.17121663649499408,10.062643102186549,0.10197783406248087,0.01594669567135991,0.07261720298596877
62,620,0.029239036553995228,0.024302404568520626,0.040257259744490785,0.019455694912620253,0.044849856127776894,-0.1385099168635169,9.754149631203045,0.06624155296557836,0.01513350313979552,0.1407933423851218
63,630,0.03215435110772496,0.006551161296957066,0.016740797606597854,0.029638524479826487,0.22558465743689965,0.12471997686394111,9.907253443703024,0.054110423724759577,0.04367855994363629,0.09681313318014526
64,640,0.04400361968043912,0.019721392624817695,0.022121119708593498,0.022059521292058466,0.04092682420321478,0.36785685174545657,10.275022389240814,0.041958120670000446,0.011262021792010746,0.07306824381793875
65,650,0.03670260466845669,-0.0023205003655566245,0.022479498076874757,0.012846726189435522,0.0947740379405298,0.1824633831478953,10.361867744794974,0.08821282102774963,0.032130718552843864,0.07224717401252519
66,660,0.026862960115847226,0.018840964253621167,0.028989691133175472,0.027066280269867914,0.3330328562882936,0.08987943026096117,10.10210831798148,0.08525772195293523,0.04218882200324977,0.10527132124776359
67,670,0.04019574479964129,0.008077035249204834,0.03643571924740529,0.024541358134327527,0.1651025858886632,0.12767885488719927,10.04669009071739,0.07640305930610242,0.01653307981509696,0.09211242601730954
68,680,0.030900814109050056,0.006052198725628014,0.03546379923935428,0.007829072526995811,0.0007320446337941156,0.20203392288015673,10.180517539691802,0.05647269255942687,0.03036317871168959,0.009924351636995704
69,690,0.03431225447689272,0.011558042167612456,0.0395243949326596,0.02109285620512423,-0.023800372172031542,0.346227700621761,10.30385638540311,0.09919013692058373,0.026801371284602842,0.042134896141530695
70,700,0.04634843127418345,-0.010576457349706398,0.02269100636086078,0.014973039438744944,0.008842194261065306,0.16541573475646365,9.968359163221356,0.07595585139871315,0.04664605081850315,0.04246672565214446
71,710,0.048309882364677065,0.004494977373438997,0.04123847944896273,0.016906578566030086,0.018046044312884008,0.10983974690496406,10.077785551362865,0.08122587006506214,0.036548214950645565,0.10986199587776305
72,720,0.030380450884397434,-0.008234977055714538,0.044473202769057564,0.010486934400991977,0.22532854306956984,0.2659611717822304,10.020452265836623,0.07793716288302537,0.0337181054755057,0.04296851700470786
73,730,0.015314916627226482,-0.009751137189808206,0.02162075199128479,0.005805075011452044,0.2501550203995028,0.16492386681208612,10.139725306060097,0.0648907302184001,0.03634472476126637,0.03902525509092887
74,740,0.025385154326363863,-0.00012893194301246032,0.0230478679532447,-0.0016806097273322895,0.24223656519099374,0.17766550251052085,9.813555011278755,0.037245565225566865,0.025711307382219342,0.1032973721301875
75,750,0.025766655848416056,-0.006425556608280797,0.04172812089052448,-0.0010571551302868088,0.13994774220942685,0.1449604237266991,10.069519133161542,0.1005685008065021,0.030333882283931465,0.1087921951604575
76,760,0.030005254930534526,0.004852545914328224,0.01850319377550126,0.004098396525255277,0.1562122257435246,0.2144891223624502,10.075422777083027,0.09189029602931842,0.04007153057463816,0.08021488423434109
77,770,0.018260059686937034,-0.0028252409509383746,0.013618620591311721,0.006988541740814391,0.057432127297549734,0.22425837673211518,10.230155756771353,0.06991816431626034,0.02901727907631355,0.08489686336580465
78,780,0.012977628835874994,-0.013883218048416695,0.006414406817150194,0.003634606207151134,0.14264607749135438,0.2756782136623035,10.211427017192543,0.06011163158298936,0.02783793731654004,0.09110658810740462
79,790,0.021416668584868747,4.848807495045661e-06,0.010882301907058122,-0.003724822192184779,0.16259961788917415,0.13410008659709288,9.885474878707964,0.09955137343664255,0.03484237231392394,0.06045422902054978
80,800,0.03538515969681738,-0.018702117335000712,0.03765803050360552,-0.004051032509497341,0.2837970209800713,0.21767532996541794,10.414927200150236,0.08916817386130144,0.04606643161794649,0.002190546198968246
81,810,0.003375816514767085,-0.01916794388457538,0.009222962162372951,-0.008184106521637757,0.17944442332844984,0.34582693389132585,10.309493275005497,0.06058707764917309,0.024279600165195418,0.08808017407595549
82,820,0.023206672791663892,-0.006214305023044374,0.020485649115985514,-0.007911815188120005,0.26940634701802935,-0.019529485500857452,10.152607105221877,0.12282216660001659,0.03490442333116725,0.11195381140512264
83,830,0.02100819869629121,-0.00652409098234762,0.003945325949903149,0.005480643794725307,0.239008438455331,0.2682646403026711,10.710893205554418,0.12381262886183977,0.02276922932111697,0.058405142562994755
84,840,-0.0011265387481844205,-0.02460224933517889,0.01745143321569216,-0.01248587896350786,0.38979654091732724,0.2537383638443378,10.078896945495769,0.06722075495168317,0.04244405185440169,0.07992348940596992
85,850,0.022840395191987436,0.0005597259686171982,0.0237391611592683,0.005178301161364923,0.15141554694437015,0.2705925600728652,9.867242860851043,0.07813503677885451,0.03283182710140524,-0.01951857022901221
86,860,0.005230993348264249,-0.015728875609152346,0.011724700714393296,-0.03454781042658351,0.2902209770163625,0.2492945351815588,10.154931070641238,0.07749908471241097,0.03168476722408763,0.09759654848450762
87,870,-0.0008701148144430355,-0.009225407956646836,0.0114615401591037,-0.018289000925295878,0.5314223277223012,0.05585100946767402,10.272224481761747,0.14499036790855713,0.03207994381102549,0.13477630868856802
88,880,-0.0069815169716764165,0.006961599296003755,0.016841595040997484,-0.017832586396125227,0.21028526522988752,0.14287085101239977,10.34154800710695,0.0581407857388555,0.05552591098040509,0.04921718948669715
89,890,0.024564795189331145,-0.0046130888655916665,0.016973468549279964,0.016537542339141967,0.16596117836066068,0.4525399700466779,10.086923612459659,0.06900220394202114,0.02269414775658385,0.10015637469161208
90,900,0.0233110108117735,-0.022849370235073746,0.013601474521544402,-0.02354228013442334,0.24611610695038227,0.3914244130519409,10.266689921097406,0.07263695921501115,0.036560872617316116,0.08558651249756519
91,910,0.0038918472748725357,-0.024500149759887683,0.011879181774657254,-0.0198825041008935,0.15242613298495428,0.29561470654498523,10.121424597304621,0.09325609506660179,0.04666496431281796,0.050917351124177834
92,920,0.0013198302376929106,-0.053678731890287615,0.004331080887320827,-0.0005944118338280478,0.11187413260236975,0.239081609046563,10.294282178723051,0.08390026639310218,0.025670667320211636,0.031178952456774815
93,930,0.0002517099965853621,-0.03222272399010303,-0.004181802889007677,-0.021606501939945687,0.19440267900166755,0.31425774506149284,10.170484363310393,0.09435547004891785,0.026666264579321232,0.08565397992977772
94,940,0.00290582259669399,-0.034703583934570216,-0.0042365089876682735,-0.03407822162263657,0.029161559861540537,0.27314852013960095,10.447463010783395,0.06928776747796694,0.04326765393180016,0.1267409190053756
95,950,0.024447869028701552,-0.010988160751124784,0.012301679199178132,0.00037068719395111187,0.284004112413068,0.21737189033780635,10.20473866146322,0.11699352124153241,0.04386784856732978,0.009268295796372714
96,960,0.027873507026405956,0.005045296369174439,0.020006647685848533,-0.03130356427160499,0.3116608042638597,0.3544095370834065,10.218650039819206,0.12304293240070564,0.0550601901468019,0.09880065491470921
97,970,0.011455900520281092,-0.030377495549813206,0.019216845884030997,-0.014942109205307686,0.20665488238341095,0.3026353320626408,10.543248314812681,0.10441219864365102,0.03867720770330713,0.09448082655643865
98,980,0.028645228492112592,-0.011175773655998244,0.015017976986071949,-0.01887561920618113,0.44449031972925546,0.180177426041276,9.819126261600331,0.07658614092217671,0.051751343467376455,0.08974413369436479
99,990,-0.001178281849742795,-0.03752635226277401,0.013672290388614191,-0.035317398029372296,0.22363048328001367,0.26713558494938433,10.134579607017818,0.08186552795925953,0.024619354218611472,0.05735903924221733
100,1000,0.019719796261880643,-0.018795476555102667,0.0335907146926772,-0.00520971569658076,0.10380951593680171,0.45578161618286683,10.049826254921845,0.09532946269677561,0.03651891200501784,0.06795021261627628
101,1010,0.017911604830053256,-0.019975132605955147,0.00520338445857103,-0.03200907135218649,0.257686435086926,0.3817989679133705,10.473348001848436,0.11718885735598075,0.025073707270117488,0.11328808925176564
102,1020,0.02465140620308947,-0.012812507275173655,0.016762316574027773,-0.012220620686746174,0.18178725506064788,0.4688775625165358,10.422079883862194,0.1185008309492381,0.06438232889721093,0.08286496980612255
103,1030,0.02353659656412115,-0.026834094351025385,0.0016297113298752303,-0.014598350229294154,0.1625236662741118,0.4461686875481067,10.4105159272795,0.05800856548888161,0.05255255138963966,0.12927606310100162
104,1040,0.025783863509440907,-0.025801540776562416,0.002598716885269166,-0.005702902966832244,0.44335501893250834,0.15742256729498735,10.09910108301899,0.05468292400596308,0.02219198640209376,0.16024969013119972
105,1050,0.0506358280574566,-0.0012849440571736591,0.05368523652829988,0.001418922899948044,0.3996363953688601,0.24943468085676868,10.319497616929002,0.09779799094160768,0.03924536919526108,0.1174100599567743
106,1060,0.015452086043974893,-0.017392262366422176,0.008171571628051818,-0.01835819826895938,0.21318165255686375,0.36753915022068434,10.333444884300844,0.10567317353309504,0.04209437343440941,0.11301546260372858
107,1070,0.019859829085579164,-0.02144108589347597,0.027192302712088837,-0.0026934483732817785,0.3351831839100121,0.10072352973933185,9.893868173579948,0.09897347173098131,0.03761559537006861,0.10867103226783292
108,1080,0.04049728471184398,-0.005018552816568593,0.030386745324609665,0.009353529094571461,0.395169923765462,0.18637193320100853,10.74301130690064,0.0820096382411186,0.027676225178547356,0.12665434292071986
109,1090,0.010762722575251894,-0.013198811427032222,0.0352678529053633,-0.012105869960227993,0.17239757204437678,0.2321125773642458,10.63184116508023,0.0644883749578598,0.04521900865782255,0.12261408342441239
110,1100,0.0181553757276163,-0.016868962158526065,0.027607371081658734,-0.04479524510482254,0.21441821605519978,0.288777461602114,10.351274847070444,0.11075451749318989,0.04313732540596344,0.0878260340521038
111,1110,0.01569498619582515,-0.016320804094037987,0.02525895452807525,-0.011760212789082413,0.3550580952242927,0.3125216976506911,10.464465664798986,0.08446369503237515,0.044500313968880316,0.0939377781308284
112,1120,0.03226272720577267,-0.03136514680131045,0.027217174667546785,-0.031228309206865982,0.21659738405031229,0.33902088431952593,10.35434414513857,0.08799119765895533,0.045436456856512784,0.01582799231247875
113,1130,0.02952401036905341,0.0007083334859784348,0.01805705995834793,-0.008318880173937723,0.15727346344965304,0.3864917479852151,10.277104948207331,0.1223983491652933,0.05499231214297168,0.13084106934963408
114,1140,0.023142711642135827,-0.031011163964468166,0.01759031167245499,-0.024919240876784716,0.4484384775700173,0.329357392357221,10.420425534666096,0.11253073870427331,0.04803594215803773,0.08021275140022682
115,1150,-0.005347471114635375,-0.027874265225984858,0.010331406808389006,-0.005049079803415247,0.30852186689315625,0.279961729105864,10.39062222589903,0.10644782922294065,0.04453535774897647,0.10767527152686268
116,1160,0.01210943756218301,-0.04082535682271893,0.018628826599156337,-0.025142664212794482,0.15475042037313191,0.3842676449451687,10.468669093903726,0.06772458954098654,0.05258219685754391,0.037019058296882
117,1170,0.0015669114396054847,-0.022472283092781757,0.02120496396197924,-0.02942947839344719,0.17304265234196226,0.4201239092909367,10.229868991391598,0.0900698933824853,0.042819821747968355,0.13119733169311845
118,1180,0.011227199473972365,-0.026844387179195926,0.002840655194527154,-0.012807161151534595,0.21057254491268276,0.48060972708106486,10.000096968278719,0.08525407475252028,0.05386653271500509,0.07619140846328609
119,1190,0.01531617568155619,-0.02628444540624312,0.03257796598740263,-0.03147728498787537,0.4246646710309982,0.37905799761852965,10.071918928817173,0.08440029670900225,0.05394186514656614,0.1196708300743769
120,1200,0.009966487990321148,-0.01771316311553091,0.00044295508746367354,-0.03185299665898852,0.2750137071300976,0.4402920680994832,10.179906697455555,0.08408047087555334,0.046414915469838926,0.08872013244269572
121,1210,0.018316028291895773,-0.04955100249337996,0.007933339463185304,-0.005393502099474361,0.25238977352153724,0.4551139578423793,10.356425024810752,0.10202474726795419,0.05201019223485492,0.08386793585758788
122,1220,0.0006587399258895111,-0.041408441864791146,-0.0037238554357846626,-0.021985300930320393,0.24613752357485216,0.20003053929714978,10.16089489843063,0.09753744176627083,0.04961187727782427,0.0604996002996614
123,1230,0.00890255925971565,-0.010803244051357939,0.015218862920183924,-0.03523167122361371,0.19589029239446837,0.4864426665361873,10.399160367946722,0.10127093021046848,0.057860604960346826,0.05154481407188635
124,1240,-0.007218192512687614,-0.045991137891933,0.0015091087069558275,-0.035642173535493656,0.41371451361659584,0.2992531833372264,10.305695641524277,0.12749795410737982,0.05625620821972905,0.03791205912340717
125,1250,0.010869280757528181,-0.014527409317609565,0.020788387253934323,-0.03020529050504269,0.2188093531189203,0.39026950354097173,10.542430197162982,0.11052336202564912,0.03550460171285416,0.12468697097273528
126,1260,0.020036114195653102,-0.022683379160363455,-0.007525482199641835,-0.029319611947016294,0.23177935611453399,0.483588914939882,10.484531108030097,0.10048825079335824,0.049333587986278446,0.12018757174127687
127,1270,-0.0032274808001030485,-0.0315995136643264,-0.019528547797222563,-0.05096050071153305,0.29195460034811266,0.23115714716867974,10.462893590294652,0.09459589762070614,0.056382885829377866,0.1130466659168958
128,1280,-0.006950142772048207,-0.04010228293202182,-0.009268255757935695,-0.050823419915430115,0.25556678173412345,0.2765981702967264,10.427420999288277,0.12608049254593273,0.034916339650318096,0.10501440531735425
129,1290,0.01719853397570563,-0.018285508960495123,0.019273195823308872,-0.004881163506214623,0.3574353967765892,0.25271561107259044,10.324746679730483,0.09117856718892003,0.05970019539346718,0.12091904296159274
130,1300,-0.0038817545425273246,-0.038700275300399774,0.0035945851322733194,-0.03336964887388842,0.21738099848547573,0.3854177133686734,10.247397323554978,0.09162929309053623,0.05713517453389956,0.11065693656427536
131,1310,0.009169722184211929,-0.019357113712577628,0.000575010984936594,-0.05173149948669766,0.28478854530456,0.5091789664117489,9.867797744388143,0.13463699641162877,0.03875562120058811,0.10845843226050733
132,1320,-0.009706971360471352,-0.03956847178832387,-0.0012959187213139704,-0.03400417369411386,0.17302103871437252,0.5979828226286157,10.374898420589584,0.10424416465453888,0.03318348648982451,0.06458575818148247
133,1330,-0.015085569553990267,-0.046847512834724145,-0.01847389179826696,-0.030116163096747424,0.3542167637849956,0.44690695487854515,10.35810908062466,0.07999329516924775,0.05191024508985503,0.13969323150957696
134,1340,-0.0014088329383948085,-0.05139407492196993,-0.01583262719104609,-0.05398029812824076,0.032530593867242164,0.416995614391269,10.484162802227809,0.08758789847531466,0.03986985861427518,0.1362742911731853
135,1350,-0.021117165238490207,-0.06136437035372355,-0.014395622806727635,-0.06689457263652973,0.22071086003393947,0.39535383259954276,10.502221696710976,0.08117751617663249,0.051990695431129094,0.09300071774606324
136,1360,0.01314663325554077,-0.05197280721228338,-0.002142552326724686,-0.043615671208432974,0.47837376230768963,0.304005596336587,9.861724223680085,0.06690690226105392,0.04479520257097265,0.10929379168810913
137,1370,-0.0006066301781974832,-0.053158726058835405,-0.012088525013831286,-0.04255432707063945,0.29476228008738975,0.38000665968269315,10.180088846635966,0.06646887624509065,0.046824429697355695,0.08065070523261789
138,1380,0.0009822887544395649,-0.05058665918301168,-0.007340927677615809,-0.05565080595296724,0.338744069350542,0.3847744439916518,10.394317046487489,0.07304192685679504,0.03834111069961604,0.08870927115461556
139,1390,0.0026701887860139956,-0.049892811970817956,-0.018432816774314124,-0.04981127398501482,0.5696195656645323,0.48432179618344345,10.202992274556571,0.12226459285371624,0.04205460483459032,0.12102387002153693
140,1400,0.011448383844266262,-0.038264369545583515,0.006758361136219332,-0.033344125528336106,0.3104574441841412,0.46065201526949984,10.137495812491181,0.08053593650877273,0.055451557598641094,0.10955516777733512
141,1410,-0.006166315722919288,-0.053196252907138974,-0.006448346790489553,-0.05275577257156232,0.2809263901636252,0.5729706673427949,10.246172495144705,0.09204640259739517,0.05291711646825034,0.11591303961944878
142,1420,0.005076701304007225,-0.0531503110794179,-0.009492200025378487,-0.06175687414405075,0.21915172200050376,0.3382732080869687,10.044693384458416,0.10640938788499005,0.05431088272692285,0.13405769709600324
143,1430,0.0069574071833441945,-0.04754556030179029,-0.013042878151819754,-0.04638916322279435,0.37302129534786793,0.3379366002455289,10.195489817163198,0.09002847896336878,0.03832422307124207,0.15621853637085004
144,1440,-0.007758053368607103,-0.028728497169669652,-0.025347192627311697,-0.042787074028058314,0.4396618502768559,0.40780688959304906,10.31151372331694,0.09556796579858648,0.04211728892783808,0.11302235241272642
145,1450,-0.0202659433268747,-0.03045311909829985,-0.004642086249229747,-0.05322405639036369,0.276876076563921,0.5207716888827704,10.338077120258003,0.08968457779168523,0.03480178912639492,0.12372400385986504
146,1460,-0.013374413396695144,-0.04652728598906026,-0.008658774408881825,-0.042222427851783165,0.2469751697352831,0.5343234787319391,10.161811185701502,0.11927197465749581,0.03297874752139618,0.10209390317804266
147,1470,0.006764974709536775,-0.04641998238324051,0.007688738008759381,-0.052976155414527215,0.16709335749273665,0.5109204988791843,10.2901484114075,0.09083594929971671,0.041350935665793745,0.06534554727995717
148,1480,0.015833896108146357,-0.042499419396502064,0.0029370031883349914,-0.0470334224733133,0.3712393825995049,0.34924959347860546,10.605336142154265,0.07858818282347024,0.039866855685644936,0.15238393723950983
149,1490,0.0028071943423998253,-0.053801912173120116,-0.004805701136374964,-0.06448541381412126,0.35511108597946783,0.5268279985536533,10.007047470856403,0.10709242111953154,0.05862733191691939,0.053011749771827876
150,1500,-0.0017855419619761913,-0.050671482007934025,0.01173184438273622,-0.0327792633260018,0.27105756534060127,0.4081007833882864,10.329608450701198,0.10125969316408759,0.06889561288253167,0.14317961586292738
151,1510,-0.007199509616089233,-0.03316488677077509,0.00229082750578104,-0.04468810779244612,0.4216819102534913,0.48652829562793976,10.109126863429868,0.1174220457384752,0.059141431368772715,0.1619309128648034
152,1520,-0.005532546707600035,-0.06653236191318482,0.003191340557505534,-0.028609151793930743,0.21014032005092503,0.32881174104488253,10.124783783357737,0.12977473568363043,0.044012414516506546,0.15445528026564342
153,1530,0.030389011129318064,-0.04161025800691751,-0.001994774838678933,-0.047172006885867715,0.24067206771741417,0.5220024709648747,10.28443930047723,0.13667651086804586,0.05977603473135818,0.12753952726737747
154,1540,-0.0012458266756198936,-0.039940072772905136,0.016846671411603627,-0.024980253928682607,0.553943620740627,0.37210126528497256,10.37028642035631,0.05977205058059221,0.040606883236860875,0.06746897268992115
155,1550,0.003423058482492274,-0.03736018024008208,0.007983123726535491,-0.031188242285616747,0.4457802430189167,0.5462091796763193,10.155428605767515,0.07676198267249275,0.046890698803904673,0.19099319374280288
156,1560,0.008190855055728235,-0.043277599805816844,0.01382409582139665,-0.036359289384648136,0.41609591871873886,0.4524196858612659,10.552290815045025,0.04458198812065356,0.051157925113204425,0.10986878352281582
157,1570,0.029439798843366866,-0.01994592459280911,0.005639723870511693,-0.03837598952038292,0.2017913141612056,0.4009580014936232,10.104145431396576,0.10125980379032272,0.03990230329411235,0.14667849292814827
158,1580,0.029119057338264975,-0.04044735316121673,0.003270280354242957,-0.04525349098872743,0.38841797289832836,0.503921527134909,10.375902005234366,0.10286661845222332,0.04578042597025753,0.09585131465495958
159,1590,0.010140638548041682,-0.04824241279250852,0.002971414381397761,-0.055837380802921735,0.22648071311130866,0.38277131345628435,10.15817126906698,0.10409818100330577,0.06161782458833439,0.11448251714033264
160,1600,0.01705175365256118,-0.039198888429903586,0.0126276546900227,-0.021749844129647714,0.2596058066817004,0.32455628852271684,10.245437874118199,0.0868088064754607,0.05948213033696456,0.1627172998454127
161,1610,0.027950016619651914,-0.039478537847802725,0.0058398986695660186,-0.024344111033879217,0.3783809838574159,0.5380769975165149,10.440506110074978,0.1087622753727548,0.049134059718978676,0.14154583797983436
162,1620,-0.005491846096372627,-0.03188303994690872,0.01027962981730064,-0.033928500818905985,0.35802500526766184,0.36412828567903466,10.025862430547035,0.1137272995603443,0.04180586774628727,0.11660951276792336
163,1630,0.03526209150745075,-0.05075267108983329,0.011980740898723075,-0.05068223785373163,0.40737226471190424,0.34683743548342805,10.46576324782703,0.0679143278203821,0.05443723414140077,0.11503388046897375
164,1640,0.005081015553198573,-0.03804269788305291,0.0012511963184219151,-0.021821069506526007,0.375188749314297,0.5429854455761877,10.47485809426627,0.05453864539439617,0.031788123542226626,0.11549831247783168
165,1650,0.03705077473906596,-0.028263268828398573,0.007707741253670105,-0.03245188887288261,0.3242161209113093,0.4490114952078522,10.116551436404707,0.08779158166848225,0.055904589015691404,0.13206307504499434
166,1660,0.031819579412332454,-0.0314511851014332,0.0152485533503143,-0.012234808871109889,0.2417953880232533,0.5252526930486003,10.383586316137674,0.10866832319070797,0.05454590635755409,0.09694539051236373
167,1670,0.01065224562118389,-0.026468678022093194,0.023166480112055382,-0.018141695817422476,0.24437426212896718,0.42187145348013244,9.875832101040672,0.11448598847623573,0.053373521085352774,0.13386259157961258
168,1680,0.03279507845402624,-0.03806014101433915,0.001592586768959279,-0.03432487886099569,0.355565092462253,0.4315228030430773,10.268609738987767,0.06582755670016856,0.049602865111820174,0.10825852182833551
169,1690,0.03832179441261937,-0.02631286106255469,0.028223301003623,-0.03792559165361316,0.2577720106103525,0.38830586656797184,10.327789136217508,0.06669918874386888,0.06241676547115045,0.08913135346240374
170,1700,0.020571392155705186,-0.03854459130692334,-0.005638125387314025,-0.04333690820179345,0.2822816377377762,0.5583622088586546,10.097441961769995,0.043612565280692954,0.07031801119935488,0.07059937754854995
171,1710,0.03405188832892342,-0.01020593063061616,0.027952334089401287,-0.0028584643726024123,0.5307456895812718,0.48825610880199327,10.144310775142662,0.060612602763409275,0.04664531926663662,0.1908331687724133
172,1720,0.017146885657347823,-0.04244849831821174,0.0065055157951597505,-0.041532754180760294,0.3279366011278544,0.32032443982507797,10.071763294859217,0.09062510011358041,0.050265789321788296,0.11757213628593517
173,1730,0.023139664375562172,-0.02780019880497519,0.005288642561342537,-0.02766948103089311,0.2839370619044876,0.4580219763768216,10.092318570014724,0.08524644217311976,0.047450423737898914,0.1325211334870301
174,1740,0.016942900627683374,-0.06370964117802844,0.005332712546210743,-0.025126144245714584,0.4821306143580439,0.5221606407308199,10.084568921778441,0.07021980598018102,0.04019823265443009,0.14166486819281393
175,1750,0.017602148425249518,-0.04789595664113353,0.019708456856433847,-0.024041121486546618,0.2688491374901748,0.3853532834989176,10.374822734228907,0.060459552432211364,0.044556230576744994,0.08194487513800605
176,1760,0.0014880339864053772,-0.031066703878051397,0.0014457970438593302,-0.038914985689170074,0.3668461278394224,0.5251050051849465,10.236123362288195,0.08803211399213512,0.04288446561501377,0.1395126631011661
177,1770,-0.005817790137041598,-0.05294350877946294,0.02077698303361025,-0.03824973494595386,0.20486869321401957,0.35368739354808854,10.507340597967776,0.08897099651931678,0.05182494366777483,0.08897612441356294
178,1780,-0.0034509213244717906,-0.052486162115855176,-0.002436466721784285,-0.052159273007531926,0.43397251539364334,0.3548864948990764,9.929542450604714,0.08103702464438096,0.05695510723049735,0.1595637297989271
179,1790,0.003584992372241186,-0.06246182685149128,0.015400937459635987,-0.06264764188353153,0.47006817013833685,0.2887302147704186,10.339755668590502,0.09218673521742955,0.05023416134751104,0.1466718420642739
180,1800,-0.017452472787324237,-0.034682355248578274,-0.011601134667152764,-0.04695929724723023,0.25183597584009154,0.33852054164029577,10.174190933958858,0.061512842989220634,0.04981493801721305,0.13730925070348668
181,1810,-0.000707712180980034,-0.045904492857659754,0.001999101201455718,-0.024374740873023396,0.1551313388175823,0.43207508449054244,9.994279644483413,0.09473693096541567,0.05962616860129566,0.12889429068935337
182,1820,0.013990513056165041,-0.0701668477717982,-0.0155463533975479,-0.06689806470610778,0.3341538220432331,0.3007375771799779,10.513270707013987,0.07691865656572974,0.02694014492679472,0.11313254154145097
183,1830,0.004707106848963657,-0.0422909618813926,0.0009383480063259357,-0.04803847478673408,0.2961523954348719,0.30487634061390084,10.440136536400052,0.04721042411876868,0.0585241099098428,0.12646605973536784
184,1840,-0.009324297801210742,-0.04740687374144275,-0.00542489419723754,-0.04951967973360561,0.42561260354455066,0.617318882982836,10.140843923003311,0.07956356867014658,0.039829877295651274,0.15296433087621938
185,1850,0.012285741668480413,-0.06673441029968327,-0.0007474233945429362,-0.03421714565927787,0.34287589082897396,0.29006985416260045,10.323200628326514,0.1009660348824085,0.040914501776462296,0.08198398127444849
186,1860,-0.004348376585512287,-0.052059700409422406,-0.007674863716350273,-0.059263610801751146,0.2088650084769601,0.5212602952000891,10.06872626951601,0.08606125021362485,0.03862177011353158,0.16569400630192285
187,1870,0.0041903588372832565,-0.05304929993332894,0.007038437936088224,-0.03259998670904248,0.20390930866259854,0.4367683382831526,10.172889341625126,0.08622935152034371,0.05076501807464662,0.16740513251851916
188,1880,0.008467495111283883,-0.05847682579272013,0.001267042059671108,-0.028102369183816478,0.3542305048614174,0.5090062059729503,10.050377489685179,0.11727441266584236,0.047998440598114894,0.18645895767298554
189,1890,0.013821065508686208,-0.02650740633688545,-0.011854781162322393,-0.02011942420749725,0.24560288495310886,0.47914713366514305,10.25636021432836,0.0812251367631911,0.06444665263030067,0.13007862111793922
190,1900,0.00961841759255645,-0.045957666317047244,-0.009362405472516556,-0.03283255681545633,0.12616697444712038,0.5375887025384127,9.938592243912623,0.07251974263019181,0.03149026674388253,0.09431908977263664
191,1910,-0.0046416353423259955,-0.04951593808952174,0.013259686815631938,-0.04737628330899727,0.15006936012208974,0.2983983194629794,10.29080204664229,0.07838616205875085,0.050730656578772654,0.09119408320116487
192,1920,0.011368183706207367,-0.022996677463204194,0.017942931768524586,-0.028403038825989747,-0.01161934536707826,0.3691668454749807,9.785706513398452,0.02996996244784679,0.047592972583000756,0.15596029140293727
193,1930,0.008092929006792267,-0.04404402493116821,0.007961074110497124,-0.039013404316556546,0.4100131116784694,0.6228565988876156,10.474372872981073,0.0686562005347319,0.04630670909739833,0.10403779830742041
194,1940,0.01812018643321369,-0.04087879427570265,0.0017623781378988245,-0.03454244481409533,0.25586830817297396,0.48194433333984726,10.080756753042268,0.03192621997976872,0.04038214953552916,0.15842528089088304
195,1950,0.041055633715760806,-0.01953602089014694,0.005939869918315287,-0.04494401179517373,0.40233585471571776,0.6194126421837461,9.868822322989415,0.06872871152248732,0.05257116968384277,0.16032720691890345
196,1960,0.014426477740855452,-0.03100740242773511,-0.005334523065811735,-0.020422474296527205,0.3388167013894207,0.42259141865133165,10.14708692425663,0.0975508139698813,0.03532543583220803,0.15485625285498625
197,1970,0.019106840097010573,-0.03562290001129515,0.02891774351109251,-0.018006447695808978,0.4069646229846416,0.5833118952402752,10.403501608786339,0.0628821080822118,0.04570339823910167,0.14167124238202966
198,1980,0.0521660978125086,-0.03495014851607816,0.03396954542712158,-0.019998887610314774,0.33745124434334905,0.42756024447844193,9.928501667205088,0.05878194643576945,0.05264099295080876,0.140239330175954
199,1990,0.032945082914867856,-0.028184953770248464,0.030093101484277775,-0.026533880574326187,0.08565161272103403,0.3503910689461386,10.1576869857458,0.08031065733042543,0.04331472171597119,0.18424096185393224
200,2000,0.03549767103954347,-0.03203691035222924,0.016861561667407866,-0.03604411953937975,0.4339551474716857,0.530936701690594,10.046265965210887,0.03410425340767248,0.0535258651165307,0.09451995033553749
201,2010,0.007201904702663461,-0.03774269642805418,0.0035716750072366833,-0.015352946732056465,0.1477318093852015,0.5054779373996646,9.969819952636664,0.074056636194373,0.027830327351717588,0.11442020217150053
202,2020,0.027816579143563152,-0.026983555891644567,0.030451835917411126,-0.010739388642148101,0.32057685310388834,0.48945481127500856,9.631388363405938,0.0872059348140801,0.05449830045106582,0.1803293102889103
203,2030,0.02489949796934587,-0.02910832447574749,0.028663641964262424,-0.012388441347336904,0.19447777846166905,0.5406319614509939,10.36256519826629,0.10378635430061689,0.04744705615208516,0.1953937066449266
204,2040,0.03245727889908955,-0.014943912008525644,0.03424425861867394,-0.002819851061481013,0.44633173003829923,0.5489650585244902,10.238819973294195,0.014182336628529177,0.04252563810593382,0.11215511443009404
205,2050,0.03707883982074323,-0.018904505002972454,0.05412948521860406,-0.007187601928710079,0.306539532941027,0.7104311570501576,9.833222561352322,0.05128792897227591,0.048985178844847266,0.12720166052913737
206,2060,0.0543165123520659,0.008158884535890774,0.04399810693993829,2.6044063434420392e-05,0.14332744783190704,0.4377688853234157,10.243070194629205,0.054888892624616624,0.04489611942463105,0.1651878336451435
207,2070,0.048443653895309274,-0.011344270288970861,0.049546462830793454,-0.026722594996769464,0.1580061752298485,0.470647702876075,10.141064715245415,0.030914759400707387,0.0437887481223493,0.1616684649753616
208,2080,0.04510085422276523,-0.01988256572959092,0.020528086473958446,-0.013280545225724376,0.3595701541639647,0.36135446121499554,10.452909906535472,0.04626906949103068,0.04746960905995671,0.1326528104916118
209,2090,0.03222287256244635,-0.02069696766492874,0.050199376157863095,-0.03427223856020635,0.21467933809366058,0.5918308568264964,9.740947464260723,0.07531333829188776,0.05190968467059941,0.11117560471325158
210,2100,0.038428887307715605,-0.006865808528241063,0.027877532709758575,-0.0017458048742172898,0.3706317610205768,0.4342549098724734,10.345722693622646,0.06249025293924472,0.045794307969090724,0.13041722712140436
211,2110,0.04910593258435705,-0.011188277330498212,0.020042536768594098,-0.02323629676096108,0.24903542222496866,0.48997943013795886,9.448828749415089,0.06532860740408178,0.05348957418078094,0.16110490917757125
212,2120,0.05567247308760193,-0.016615306495208072,0.04752241664398837,0.007067283512543829,0.31907562219395685,0.47884983239048756,9.909987661278013,0.07692266928424728,0.055309272430419665,0.1260328428802847
213,2130,0.04062615872460835,-0.026332357167275493,0.042386663305748175,-0.026746667903571,0.2698495843607272,0.5128940435808516,10.217033537788598,0.02948397429197322,0.0455356466240209,0.17842765077064948
214,2140,0.040043512995249934,-0.02635188276282576,0.0408273539149878,-0.0036056655844646244,0.2890584721867597,0.43817041601419066,10.424391878959202,0.024062766770252132,0.04394342287667145,0.09666465736839815
215,2150,0.06675494604902191,-0.015504696795113834,0.046708469988403487,-0.007699999693298978,0.2764115878864084,0.5413634628609522,10.065172894032562,0.03765325900369436,0.03321783890853543,0.1826930432041588
216,2160,0.04340370400439608,-0.010211141587766773,0.04152876173492656,-0.007308472868650502,0.07543806985670073,0.47442342246447555,10.225279469764418,0.023116268338413,0.04845902499838297,0.1491562270857995
217,2170,0.04976041919268327,-0.002726923113334768,0.04019653714888933,-0.015032440073112843,0.10706100301640584,0.2627582704710333,10.288100476183098,0.0033313700927307885,0.04778432855938334,0.1575552418934855
218,2180,0.05428875154318241,-0.007141982510587138,0.056858109060642155,0.0005777121472637081,0.2772632999091368,0.47345200334319587,10.381950590558484,0.047215062838561396,0.04474768208733057,0.068580268529271
219,2190,0.050582572355852846,-0.019286921671915862,0.03114711375461548,-0.005051725055812886,0.26939953397402544,0.542680184265365,9.798398039351246,0.016949143537629992,0.05093477185924479,0.1725380042536956
220,2200,0.05743943007588412,-0.0013899043526411393,0.04533823286758106,0.004039746299172161,0.053044497192226536,0.4082722537509984,10.34695067787968,0.020246490140482572,0.041969545634059115,0.12955189590475447
221,2210,0.04687806466185697,-0.00650140875789957,0.05527960107868171,0.0018950789675056569,0.40206145524146375,0.48117822313070563,9.599601463461015,0.031976826887304174,0.03808574513575852,0.12326435628692559
222,2220,0.05853192647340224,-0.016904418666850263,0.02876920386408016,0.007175466032644972,0.24838767846908477,0.2557345455799307,10.033820906645529,0.0524732578193029,0.03988009890116197,0.17036432989946476
223,2230,0.0525179425585975,-0.01061217338856554,0.04727689415494243,-0.0060158157972923405,0.28877070955926726,0.5377388292227518,10.163838282486775,0.043929828535651624,0.04945187858671714,0.11716683005916476
224,2240,0.03463933961611633,0.004085065280005823,0.03173064445682381,-0.0012915643092801816,0.27062539108608413,0.4931752266981214,9.760847826404103,0.02208427298973375,0.03134912572340128,0.1218139624121287
225,2250,0.04323662565607189,-0.025752916698180736,0.04102252246153501,-0.01401544485567905,0.051053379402442284,0.4100886792469607,9.721664786761268,0.019417330455360274,0.03894386402497206,0.1445722627505894
226,2260,0.033617420399434696,-0.009943416748332382,0.035815783183774645,-0.013024337479122624,0.19507447768458877,0.4924566990302967,9.934391742635677,0.011335157607368657,0.04056627868142269,0.15598767831559088
227,2270,0.04214814215347028,-0.0005914360011161843,0.03861650557138363,-0.00549090746081039,0.2500025935496371,0.5006623639646606,10.119863343949847,0.007851125820459513,0.029172290075879764,0.1721636867833265
228,2280,0.04785711886913255,-0.00928371575806449,0.02706678537993301,-0.004295498843885689,0.13889508493485853,0.3638157659682353,9.99950548570363,0.04936735045889913,0.04460115338889486,0.15902326666736688
229,2290,0.02680469618072638,-0.03156424315560016,0.04008488031545776,-0.018053964581834135,0.12136746745312871,0.6193896134640476,9.722968901154346,0.002627456886103805,0.060312985432741134,0.07103535884505932
230,2300,0.038367668996142135,-0.008977357285102714,0.03701440349942988,-0.0019113241662628566,0.38545929228850007,0.473438911739692,10.28819469903734,0.06465078856263025,0.053904881540101146,0.14306038704782983
231,2310,0.031059136003831027,-0.036971402299241264,0.021878335804777528,-0.006030163713969874,0.3407632122187879,0.43693479442300615,9.730256954103645,0.024704113888981267,0.03599608845118838,0.14668381427667423
232,2320,0.044612625472664084,-0.02113751335599511,0.0425455258860515,-0.017870408527818328,0.024688672558644376,0.4051258667542684,9.952170251918512,0.026433182981211657,0.03013967977325025,0.154531600363811
233,2330,0.03164376333313449,-0.028991984776033812,0.027131384409685412,-0.004333940639633606,0.34530127839404945,0.7892523665278772,9.937981931518467,-0.013987533842637005,0.03421813322498681,0.1398521272901606
234,2340,0.02942084190872335,-0.010977371410467793,0.03034308715369557,-0.02938690518994143,0.3423689407818451,0.39556826178992094,10.014686907927217,0.0010765090527053676,0.028631149568305925,0.1565272080552497
235,2350,0.040379635480637874,-0.030912194319929514,0.02835345480621003,-0.01715872132197917,0.10460696883106144,0.3758166822361201,9.919063691540703,-0.02039874308202311,0.04814991172980787,0.15947820319711017
236,2360,0.041933683751850664,-0.033348458726437775,0.016430825600922818,-0.01456871460438163,0.1785821637812923,0.44590900908678466,10.102922131265013,0.027284924876668143,0.04601775877379332,0.14789529066077967
237,2370,0.035549088522097434,-0.029827435170447177,0.03267411503515833,-0.02551389570002435,0.2822383582156215,0.34371002537733053,9.996592500936943,-0.014828208573689668,0.03744235398947178,0.1549721858977194
238,2380,0.0325817254797026,-0.032173202458517826,0.04793500516477947,-0.02037408749143945,0.02940139253876148,0.4894590117348251,10.235645762464141,-0.020386579522587142,0.049475518417779765,0.12300513427163973
239,2390,0.04142301234970091,-0.003882997253787648,0.059554842392242575,-0.02963040898226638,0.3234855140515843,0.4721507688519414,9.825121795769004,0.03739035531920369,0.058305359420483725,0.17740781830322674
240,2400,0.05318344816618424,-0.03519147240323138,0.033702547373103166,-0.03312816977457942,0.1459266302726063,0.5092399090555263,9.676839681510543,0.018806923348292457,0.042889689465011926,0.1221686869694559
241,2410,0.03141802812750715,-0.014020700222974258,0.02581358659495266,0.0007270312715187653,-0.03160899134295439,0.629943796053448,9.857794503937964,0.01872473990565628,0.037290656853299776,0.09883463627783949
242,2420,0.03545095353295841,-0.004378405029640025,0.038531137715008136,-0.015480589293685953,0.30850099407677845,0.498718430568544,9.85353394494148,0.024164133939564257,0.04402586112655588,0.145751155074879
243,2430,0.024830710851532645,-0.01155014164288483,0.038235646478366137,-0.0038997118740641606,0.23696856907746683,0.5705253148022416,10.001755415043094,0.011053309343241755,0.03523133692506794,0.1608774972684288
244,2440,0.037724439079645025,-0.013176442405893484,0.0355347358505569,-0.02191043168971336,0.1406974131286427,0.5257525772072842,10.016241124969714,-0.002235142964168293,0.026957736460048877,0.11734858459718642
245,2450,0.04341919684021321,-0.03572535277954635,0.04215818191221452,-0.0033991376482462674,0.20937336319547825,0.5349628996302856,9.560413217822713,-0.0004951457096052858,0.04159903506000637,0.13092559495231992
246,2460,0.0332575289250137,-0.013449746325929301,0.03713821171801228,-0.025092202527139718,0.34884080712910287,0.5426642597861372,9.694823370814598,0.01352529055985895,0.022823228794553844,0.15474506011251013
247,2470,0.03960610506484627,-0.02221760949797323,0.05643920945793966,-0.014389671442859926,0.1567104058144735,0.2337102012773245,9.856125637922707,-0.006486654454870199,0.05550482184911831,0.16743567071962165
248,2480,0.035324657420915735,-0.012790189934446153,0.023080310588039315,-0.015035792757007648,0.29791106604144524,0.457659192408018,9.974537702067423,-0.009093107051510218,0.021426389796543543,0.17503851416186167
249,2490,0.04831761171382787,-0.0037275359356842928,0.02826777633994805,-0.012178868483783275,0.37929447049339204,0.6615851078122394,9.949569957720996,0.027307813694338046,0.057694637815299606,0.186953055259231
250,2500,0.051690997622696404,0.006069207921494018,0.04107191967506246,-0.017571118132203994,0.25001907080033964,0.6050442330191795,9.713262016568509,-0.015504068839241391,0.023080648061797073,0.1835804084969785
251,2510,0.048969199255872016,-0.01785956969426558,0.041327299680116954,0.01047909799554391,0.1815754845800507,0.3924336024539501,9.73209832746985,-0.032639603614894604,0.03951247307201237,0.15843331977848152
252,2520,0.036175944070507324,-0.002793316430340991,0.04076272856406829,0.00457315180449498,0.2663726757014214,0.529428312450834,9.956555094804697,-0.03405992322850809,0.010523781026706713,0.13367035204631755
253,2530,0.07832745375309685,-0.003177932289695938,0.044103840882155604,0.003991588494165632,0.028374541001761566,0.29761387825103264,9.82823339717438,0.010831853915040636,0.038265952018165225,0.19971345614583855
254,2540,0.051430720642361434,-0.01689525577725426,0.049985687430309095,-0.007954413213967532,0.1192366667098718,0.42056581916940244,10.00331076027763,-0.021970657858979004,0.01736377911869288,0.14136627419464934
255,2550,0.0589262557896987,0.013764961265890777,0.03746035300341345,0.00827927288600661,-0.017758031617068515,0.40271670907296775,9.762850989498801,0.02637193568067568,0.04421021791003612,0.1592006307637879
256,2560,0.05144005426866305,-0.008306823325710807,0.05708886057431539,0.016398571476699847,0.04786675508975513,0.414087583374168,9.806694079048732,0.016693645588281614,0.027925694455860205,0.09051253041872863
257,2570,0.047429508145836956,0.025709148129316396,0.06431465898385347,0.00412867921486871,0.2507393836264309,0.5572177900666926,9.726894382161044,0.04779759887880607,0.021928388420472362,0.18156907432465452
258,2580,0.06316174032117253,-0.001738060689933182,0.05401790778774163,0.005637919057336669,0.24763834695394865,0.5087232737719368,9.883718221257134,0.023582851429062954,0.03935990476797232,0.12714207798134436
259,2590,0.050526826111964476,0.002605270442051775,0.05072124625953959,-0.010156935587830554,0.18665115205740157,0.49618174664862447,10.131340357598493,-0.0013397431494329409,0.02838179845377529,0.1437322828340884
260,2600,0.060338917112517175,-0.0011476801359845369,0.04545864899720841,0.007271938296955343,0.12742599905623006,0.4547035558825836,9.91503619425835,-0.040446288980926975,0.03694337311738072,0.15140702973894654
261,2610,0.057268205580844285,0.009147441381550755,0.04753409691536287,-0.007448644848538539,0.21680829621127537,0.5154709998997009,9.510888045023474,-0.002175577783657942,0.031094016587943082,0.1542167608605959
262,2620,0.07352589079804778,-0.013472699747229547,0.05162378022343967,-0.010588269381554754,0.35518485363987207,0.5447638077428312,9.820731289452743,-0.004969055388512304,0.04181816907178567,0.19251873098037042
263,2630,0.0343554559815429,-0.0170192923756674,0.051168174719632156,0.003695859277380628,0.23425869846966263,0.4171314881439764,9.529983038853693,-0.01215393326248217,0.012316414308913781,0.11061028434834791
264,2640,0.06079690434175868,0.000777866943375948,0.07516115695558058,0.004487844605830974,0.3689585114464406,0.5509671568971823,9.867506640784663,-0.03177428914568835,0.042999585599394215,0.13501978961501113
265,2650,0.04324610532405987,0.004930002094663273,0.05128147732151453,0.004723010319295922,0.20218767927309977,0.41757266371269186,9.718326618858994,-0.023085057662785635,0.028199321407483133,0.186413988602482
266,2660,0.053075918465717485,-0.018338874160422663,0.044887591197672556,-0.021002833004753994,0.1876761988188518,0.34874688693015804,9.772113879538523,-0.039086612124167155,0.02810597662346302,0.13482380398135954
267,2670,0.06182615803411264,-0.0015088722638262348,0.05260248866211044,0.00020578168624611586,0.2747803436004635,0.6217595368210969,9.815560037375654,-0.02839371301550781,0.042810052056289925,0.14347217323994021
268,2680,0.04351380147797192,-0.008615390830461294,0.051619453540485985,-0.012217808758253327,0.17918145215848835,0.4235711738054756,9.50824812274982,-0.038004695128688086,0.018442882530221586,0.1605632282954749
269,2690,0.05853980571991817,-0.005744309210510347,0.0652498474884606,0.005898840352985585,0.25481212380116114,0.5273016874058506,9.492704371723653,-0.009584402090753742,0.03137462532133527,0.15334749985632343
270,2700,0.04705747541980461,0.0017741714499248332,0.041880947157922496,0.00028076709515181906,0.25451511940461496,0.4488247809613655,9.651166730678943,-0.01682914542449161,0.027571367760994777,0.11047214561403407
271,2710,0.04448847529895074,-0.015886528695734384,0.047653437406807116,0.00010438269125025764,0.15603838837519762,0.495745810356512,9.47349710239698,-0.037279098943801915,0.02761411200526093,0.08476246447155618
272,2720,0.06187042546329605,-0.008003692703006618,0.06307157631332648,-0.0070894249991698514,0.23039245870957664,0.5161035121664733,9.696533209151712,-0.028306911885572057,0.02690508000443615,0.19013391031080212
273,2730,0.04826237922176386,-0.007377527560943896,0.020253918669630243,0.0033977251067545487,0.07566465193603258,0.41358946869962043,9.364099965417422,-0.027904376144669413,0.03941180511660855,0.24714824676912794
274,2740,0.04082654783228316,-0.037799538790582635,0.05716496557736233,-0.013481643997836747,0.1848107660951209,0.41313346288728264,9.440035923956044,-0.01447620035332803,0.042765361385203544,0.09819604820965083
275,2750,0.04406749656101925,-0.006767501469229262,0.04278244889294406,-0.00191971278224933,0.16634498083970214,0.6761443840295838,9.667332608411625,-0.043274392963969704,0.03340869783709285,0.20808656003115472
276,2760,0.02921977289617867,-0.025390762081879893,0.01332201311712818,-0.00871358835261007,0.15599515752770227,0.6357469845105248,9.630904993781364,-0.04358414126734569,0.01120669050760034,0.13912281501612472
277,2770,0.052327543780841895,-0.024678392835135874,0.025370262929564395,-0.004554298395296519,0.29666631969297685,0.615100380232955,9.720224971303297,-0.04826098161889653,0.034660654665921255,0.11391368760477463
278,2780,0.04246414917039839,-0.0507106901564362,0.022998738275308926,-0.013413157163389255,0.07679009550720911,0.5399103497499878,9.735923265624017,-0.03711841020102071,0.034202330108852784,0.09841030960873445
279,2790,0.05259007812681699,-0.024244735347473633,0.024182683898197395,-0.021898493462852844,0.14768398095936056,0.5502399425922027,9.589092291694644,-0.010846669452148485,0.017732116418340292,0.20135429916719244
280,2800,0.03690911451710748,-0.030713505834425114,0.04306227086273457,-0.030964635887706496,0.22802098686359967,0.5704411439925339,9.581416021379459,-0.03341567203080184,0.02097032682113672,0.12278496114234873
281,2810,0.03642415994532096,-0.013861010272774048,0.017612458087571264,-0.020892247104705573,0.20326160667790721,0.6712214051123732,9.858683707662948,-0.06662724496792966,0.020891793933574265,0.1988203231468555
282,2820,0.026481355628363373,-0.03324779116223704,0.04596819265963641,-0.05252918510272625,0.30096510731584003,0.5919021933713038,9.921168069200741,-0.03434477190713699,0.03412895427484297,0.1459873949478966
283,2830,0.02802990055197923,-0.029197687356018777,0.021565366611032165,-0.02827103107236914,0.23355957595855714,0.42553756678778293,9.90984745482521,-0.016602106923427735,0.021287557263282166,0.13313402582316217
284,2840,0.03270507533298454,-0.014187787017096852,0.03893252434165851,-0.0018799913287211607,0.11032646773376248,0.38505796287825667,9.747668092201117,-0.06729352374418308,0.02055442392752245,0.12436227686846599
285,2850,0.022416917493110883,-0.04106154326779206,0.019202579073604408,-0.036917860616530546,0.0947206321289461,0.47072059166393027,9.786633572001781,-0.07797280434156167,0.013506288422515035,0.14463883318778303
286,2860,0.015201726346499784,-0.05479767506837295,0.012204113578264359,-0.027420019784891773,0.09997414501578251,0.3410317655108947,9.842648693910226,-0.007034149054339689,0.022187145501843586,0.07568520313116191
287,2870,0.028675509266059593,-0.035361378587501026,0.0213815964109334,-0.02661953666527759,-0.0010624912425273025,0.4783543587605045,9.502063084864869,-0.08758105160502122,0.01333046497300747,0.14373324910828839
288,2880,0.008778320857957416,-0.023862514325832397,0.028592697278464346,-0.009791843168465675,0.013825014523934753,0.3956397798550236,9.10976312935413,-0.04797360820800494,0.01628986880317249,0.15029463573368204
289,2890,0.009453644041130032,-0.03349742092467928,0.020291456285486658,-0.027437683728317813,0.21310545256468888,0.48417016724586326,9.677176984342266,-0.04812289613393744,0.021910154775548803,0.11405092694599978
290,2900,0.01469110678463947,-0.017874454916134135,0.016961611056190762,-0.016456744587579165,0.0018821606927835605,0.6912284808940412,9.616655546910588,-0.03789165729619488,0.024107852991605613,0.18083268171765515
291,2910,0.01690744445126091,-0.04319720150380857,0.013637592221548993,-0.012723356165609528,-0.007785569913229637,0.45908711534528845,9.569455984670249,-0.08385195639063409,0.013950218064659375,0.18936837480868923
292,2920,0.027664662502839207,-0.034290070256985584,0.027783270819741676,-0.04115902835595241,0.10451799724155578,0.5126892938315272,9.495672932009828,-0.031410102966871856,0.016946059909330898,0.184753906787241
293,2930,0.03768029862946962,-0.040163528399672146,0.01641400227061882,-0.034057224813357295,0.25071179607593014,0.5033755184232661,9.5081961257375,-0.05974370427372936,0.016532785854013663,0.13324330631007647
294,2940,0.0054103735112540075,-0.020444625383176356,0.013746151861625346,-0.016930956999093034,0.28843805400337674,0.4073582430418957,9.523085486016571,-0.018953620144156504,-0.013355526285404217,0.1170037198210641
295,2950,0.017762085445786856,-0.048468002410729974,0.007463693704360477,-0.045270198371524774,-0.009914609995283624,0.30859762741676083,9.089883357881112,-0.05277161707454846,0.014514148154743072,0.1377479139440043
296,2960,0.030140306949413803,-0.03646038319712582,0.02986259834556442,-0.032913342226012374,0.13400890097821708,0.5087898372908161,9.547701260893064,-0.0801568330415887,0.013768098278649225,0.11017509624767216
297,2970,0.04216051279938937,-0.03806509803518593,0.014241438483303698,-0.028767199477815374,-0.08066352732120573,0.3655227583314992,9.459844075559907,-0.03946152438704412,0.023034927862441056,0.15430349042591013
298,2980,0.022832429971550022,-0.02691485690447587,0.010694769528924945,-0.026429141129836253,0.02737502512133813,0.4375561334716564,9.564237509785482,-0.06533787251737892,-0.002659006705212446,0.13791934359720526
299,2990,0.03965957865916703,-0.0344180563464494,-0.0004287407930641182,-0.04622060925122863,0.014477677632309269,0.49063385227762585,9.109146980628147,-0.08693027621667285,0.0030665127771272276,0.12832185553433598
300,3000,0.008820252864798473,-0.005526325150410641,0.020215153845575602,-0.030743176384285927,0.14993589659786571,0.550337831422491,9.658161428270933,-0.07552118082465678,0.01657136057684347,0.16377186181881542
301,3010,0.03931713232049379,-0.019499354984430842,0.016851633910411445,-0.03133330042082113,0.1923977443846042,0.4239570785528502,9.421426404981615,-0.0374615088143609,0.025615397507878265,0.09467502906589662
302,3020,0.032727539757175926,-0.025531309949981092,0.02789186928277393,-0.01895936557545925,0.09168918732103815,0.4293071585326603,9.53477642583102,-0.0689480314958486,0.009513582280039443,0.14087653471885941
303,3030,0.030994798566147785,-0.04646494370290949,0.015444973781726452,-0.045222733873811934,0.08278947388949275,0.48392455285253255,9.225705156795211,-0.036341990133724314,0.0220650182358894,0.11397186734317487
304,3040,0.029927578623754145,-0.041657796146856496,0.036582258984928825,-0.028845401241486122,-0.06003585273721221,0.47142730503270935,9.436153403567111,-0.0736597671697015,-0.006327184241475537,0.18706462484225334
305,3050,0.04218451058515931,-0.03146026104816877,0.034949248652482945,0.0033784059702221415,-0.08517775910086274,0.6573372492092613,9.539834548223283,-0.045795197359668735,0.018507370948216768,0.12321562829242487
306,3060,0.03609751583188349,-0.06153566687838383,0.013167006614799418,-0.01204729844311379,0.09918504358729534,0.5468480723254657,9.254951128062064,-0.07418484263789077,0.0033074987716487352,0.13728208028298028
307,3070,0.03588346889282919,-0.04088049530520579,0.028406956722117443,-0.019147421816226928,-0.04562146504747831,0.6023036324722413,9.606187543839932,-0.0778086820852831,0.002265218958411053,0.11016943872900135
308,3080,0.05068187946228875,-0.03789249094107637,0.043373395313936136,-0.017921298990914422,0.09250609007706637,0.508841455040462,9.656269197635636,-0.06851768720022092,0.007470883893856455,0.10307749592970783
309,3090,0.0436447468908851,4.45408035914599e-05,0.029533401096065004,-0.013094902903710657,-0.01917980959701135,0.5447611001497854,9.479365806666634,-0.054628612015855324,0.010330201686083895,0.20966439618448499
310,3100,0.033246937969210744,-0.02435530058974368,0.036232226632721964,-0.010568083330567149,-0.14781765241514305,0.40423524824928575,9.597419455362076,-0.09352151866132283,0.02513398768914775,0.16398381999530623
311,3110,0.013646322976965162,-0.03760215336514893,0.020666538479147494,-0.035853288108615426,-0.027061934466477852,0.4484686088063139,9.296061799687918,-0.04914478598629675,0.01586323041292449,0.09216431125639311
312,3120,0.02767581895006368,-0.03170245226565373,0.04038139800661018,-0.018938836743060787,0.2644222126861667,0.38031959593862036,9.480150867515595,-0.06115761006559599,0.02064910056886424,0.09825297521345389
313,3130,0.038886361326047295,-0.014418976176597821,0.030856260019941163,-0.014618442898113058,0.25600691041497975,0.4802184868310097,9.269348004221564,-0.08795358936905928,0.03113643963486745,0.11858702374351018
314,3140,0.03372633822733109,-0.038781329378172004,0.019795655952755613,-0.03519041104343266,-0.13849269749295756,0.3819147223794117,9.483405096842674,-0.06768020158726779,0.009847631155546778,0.14369614885048293
315,3150,0.037676555591135745,0.0024855974116323037,0.02372337760401922,-0.027276815279161,-0.007955809567265826,0.6064056439948525,9.087001655674598,-0.047299237809968614,0.0009691081108210171,0.1489682255121175
316,3160,0.017963384271445365,-0.013953714234220047,0.02296302958592052,-0.04328090072961913,-0.1326823496003957,0.5151822846701336,9.737354218082402,-0.061803530437811796,0.018473640354873554,0.12714831112060895
317,3170,0.019104409897301583,-0.02694465903708888,0.040914218339994035,-0.022076512051363597,0.061010736342162405,0.5273374833875258,9.44534063911032,-0.057348576518848615,0.014679458259703742,0.07094280247660921
318,3180,0.03288705236938796,-0.013709858297085585,0.03267533415434762,-0.03361872649926882,-0.06672759548837348,0.4846453517904593,9.317789402459146,-0.0745302352077721,0.02294580294950255,0.16067433819739693
319,3190,0.013267820568082803,-0.03361026313380949,0.04572883302551773,-0.012225297508233653,0.21014513684842503,0.4890573752918777,9.427148181544416,-0.07114223499820282,0.0030340526349768634,0.09869626163365347
320,3200,0.007985225121041394,-0.045098957842838225,0.014605834426657614,-0.033432830597175445,0.15189999660558764,0.5033036121628157,9.19447852778429,-0.10845278062357755,0.005369056429238214,0.1164769436484932
321,3210,0.020559263976560386,-0.023465317714604295,0.03671939594170846,-0.030198271006465396,0.006592287124846805,0.4820158368533634,9.064208031169809,-0.08193873003673628,-0.01716145905664241,0.1241537983133177
322,3220,0.017477357393767434,-0.030385168697841317,0.009740610776527953,-0.03993214108824207,-0.16051122490617198,0.5309502377315718,9.549211557009412,-0.10961741790028759,0.010473552955158174,0.15341504040153453
323,3230,0.0022445861587808372,-0.04056606119466286,0.01995768314233916,-0.049658196191981786,-0.14436125979692177,0.5684301779524126,9.615583545320296,-0.10010502553917555,0.005876664063259698,0.06615954746760144
324,3240,0.019155563211973484,-0.030928015480687594,0.014424556872410975,-0.025446214256566527,0.05925323640054268,0.5046398734416027,9.49331181866403,-0.06519658015687309,-0.014102738864497429,0.17303779699063404
325,3250,0.002720649419420588,-0.04797518899855882,-0.006970830602082728,-0.05426746915380559,0.0791618410335495,0.4040011986816993,9.57618219873468,-0.10720028626649471,0.009758162042617896,0.10402922992483823
326,3260,0.013682543880707089,-0.04143136519031088,0.0008858796536986603,-0.0484040804700915,-0.010358619179398475,0.40178307301413274,9.243781551708599,-0.034366824685704726,0.014876292232315576,0.13972801208697808
327,3270,0.0109462590952242,-0.03225325533581732,0.028664616073694332,-0.03639980939535524,0.0391003022757375,0.6521388174089296,9.407625804397483,-0.047100237733631735,0.0043952208581506036,0.08706160719429194
328,3280,0.006122155688927865,-0.04671189560167913,0.00351980254755758,-0.045483283631849024,-0.05061134143933172,0.45897678443081386,9.446730600919706,-0.08690777694780862,-0.019558267738453355,0.20587315436415832
329,3290,0.009172243060837632,-0.03604833768802875,0.008381993562078286,-0.011058617497020817,0.021908853160596653,0.5283569498923233,9.348260385520625,-0.07683997876937684,0.014002441466969714,0.13833050283975948
330,3300,0.0010027674532094057,-0.036277409971692,-0.002863416255841655,-0.032495843347404914,0.016278309681265844,0.4561138395368069,9.463890825417506,-0.07263961873576584,0.0007274018897772002,0.12104952576284617
331,3310,0.004172008064275442,-0.05566748370988674,-0.017160487735978128,-0.03848993386240129,0.09298417807003931,0.3758903383866555,9.465665034719395,-0.1045297800237877,-0.0011461568923564571,0.1409608589134945
332,3320,-0.01110769688761163,-0.05114161391177365,-0.009531025603926026,-0.05206717541692469,0.028735985106260485,0.43542016760543073,9.379459466531706,-0.04903190888232197,0.0008326179253471917,0.07776926765227658
333,3330,-0.00036464079587834484,-0.06049580810594982,-0.0028206507086426377,-0.06290058491671353,-0.013444784404376764,0.4785339932818018,9.474482028674815,-0.13462993236118675,0.0031323816708337016,0.11985820787908727
334,3340,-0.006785819513257262,-0.05949809445556136,-0.015013630790220117,-0.049482271899726725,-0.06814976105008205,0.40564677133217397,9.244113106155242,-0.05915978412215628,0.007729815268192386,0.13087021191556963
335,3350,-0.003266366618788645,-0.04477647438596771,-0.004780267677638974,-0.03253199993368198,0.17830106531626622,0.29683513317259047,9.584190348801306,-0.1041904302386788,0.0049539686195753,0.14255124215328005
336,3360,0.018143535554622166,-0.051593058892642714,-0.011845499802140527,-0.04038189846621966,-0.039220066686387375,0.30085250925308693,8.978138671856941,-0.08604281279043384,0.01720868155755939,0.1281603633412005
337,3370,-0.021998422759617393,-0.047563970019170516,-0.011260743665492255,-0.027378866858074186,-0.013576129188251025,0.39592279375594,9.581933642235795,-0.12329466448036086,-0.01001262296200765,0.16134710348093056
338,3380,-0.018321173920288363,-0.053576599181255895,0.003979525863270356,-0.02964271883623861,0.10788789210682735,0.3358950184580715,9.070570042845407,-0.08056499429265249,-0.014930694687990964,0.04527624879635314
339,3390,0.0015372805806771741,-0.0637954970603523,-0.019598551021698607,-0.03998671610014205,0.2605977008082182,0.3993273582070709,9.335372389891875,-0.10140369618690401,0.004197492818862473,0.13566853577823385
340,3400,0.006623926008529372,-0.06300013702821725,-0.0196393476480706,-0.046624266088475676,-0.10103046813167715,0.3811114855633636,9.366393863659287,-0.11790201102875378,0.00437385335424295,0.14455876067551424
341,3410,-0.002117283402203997,-0.0640375898327584,-0.0068623354629807716,-0.053403247903973466,0.07014039305994442,0.2955297504837711,9.412685883986468,-0.10250011992154621,-0.019965000561371498,0.07698120781157111
342,3420,0.014591521333773616,-0.03970987289040311,0.01624483678588491,-0.04929351407587225,-0.0448466662758623,0.5253442605925004,9.284716234480506,-0.06331987582314125,0.0003973865849198465,0.07881158544851566
343,3430,-0.026536515692519975,-0.042230439925723035,-0.01282663158153308,-0.05442416448266486,-0.06063533038506408,0.30979883641638983,9.457364218011156,-0.10586586010813971,-0.019834247294979918,0.12483180728889798
344,3440,-0.00402350158275629,-0.05600270197722267,-0.0007323649395208527,-0.03171610733039755,-0.15072610534766512,0.44978182598268973,8.934556675272626,-0.08456822473373529,0.00046422605309982996,0.06665202079036131
345,3450,0.005169550622546541,-0.03563431741524985,0.008796997385287164,-0.04661298440976551,-0.0011313941394505422,0.48170704942884557,9.223087493597584,-0.09947943555984162,-0.003625345979791912,0.16550239441220477
346,3460,0.007352889672774944,-0.04834911516962486,0.016189600738328314,-0.044776756066463835,-0.12058177104492178,0.35037490869648147,9.196753302745684,-0.09819710022353942,0.006152212396933945,0.07224444039186727
347,3470,-0.0014505596885906599,-0.06467386596072076,0.00288158261165942,-0.03505762268711069,0.13706998786216695,0.3380820140949789,9.098177447698395,-0.07996342426729348,-0.00995350736417055,0.11247911858122546
348,3480,-0.004976700125936807,-0.06533387086762932,-0.0025787712022526735,-0.04417700744942921,-0.10587875833705448,0.3234229950466311,9.198030013474586,-0.11172239958726615,-0.006503931093158168,0.15321878975531267
349,3490,0.017833413949289237,-0.06062996241047773,0.013354603258710945,-0.03764111271481609,-0.07773573900385795,0.37637996340647595,9.47921039320348,-0.07408596565249383,-0.033984399135862244,0.12416215528242647
350,3500,-0.012569638849464482,-0.05253799757986971,-0.009216024145178992,-0.038465641522867355,-0.08875136816947808,0.4368198825460686,9.071687171726657,-0.09479228027472919,-0.015615183721803639,0.11785823955137079
351,3510,-0.01901470925861964,-0.05868183248716562,-0.033150806567429095,-0.06103642741846882,-0.00959120449464096,0.44230754732203176,9.438684436302744,-0.05863547394009869,-0.0026844483552080165,0.12827686223861617
352,3520,0.0042548498559824306,-0.07419348817083952,-0.00459672726046171,-0.03526291248226105,-0.12530928617356601,0.4864678378684706,9.571723782291158,-0.09451312012521806,-0.01735453756271552,0.09226134248977522
353,3530,-0.002605198173102449,-0.040798594365084914,0.011631126641999459,-0.05252857771183206,0.037947512531344124,0.549265142878129,9.540223766746939,-0.11146237910853818,0.0023341974230058956,0.11411845134569179
354,3540,-0.003156729552440521,-0.030975383594173296,0.016679889847062923,-0.0424426848192867,0.02403032843192006,0.41910647461162376,8.810391251380086,-0.11071524212397357,-0.013660248397455114,0.08755295989712904
355,3550,-0.011520214068042694,-0.045461056945974264,0.00910414326608895,-0.03956936330554649,-0.1446295169177969,0.3482126248305122,9.2409763881411,-0.10071709907947098,-0.019459864148157244,0.03231601429836721
356,3560,0.012397940030921753,-0.02739617377515071,0.004927227124396658,-0.0246567841743423,0.014331109015095322,0.28218740393009645,9.811795503366358,-0.07370712096569595,-0.01688616362874799,0.1282063246611065
357,3570,0.014248348948029534,-0.04200525317251909,-0.011227019065083688,-0.04556855414412853,-0.06270943202983645,0.3874253915273851,9.240861873508631,-0.10338962434441082,-0.005411634388659096,0.08595785373617862
358,3580,-0.0034934767853812138,-0.04036668676342851,0.01439102226031717,-0.024531217062196853,0.029883306469788345,0.37832212968749934,9.189151300852307,-0.11074792623340525,-0.011093659523452913,0.16231974454034068
359,3590,0.007115428121895542,-0.027727718619573738,-0.0012829091343576245,-0.026356933081598075,-0.05601069060767629,0.3653965858132989,9.460168419759263,-0.1289787988663638,-0.014583610316255281,0.13480933190582273
360,3600,0.004811634898798827,-0.021075284672697557,0.008307531087743951,-0.02394309211470905,-0.0403792449220198,0.22172977404141023,9.504177371055432,-0.10496158546200164,0.0032127233340773775,0.08596489951603459
361,3610,-0.0001346236776535309,-0.023724749540012073,0.002299250220259924,-0.025035017179477224,0.11795533115959443,0.3421360617877215,9.19774911193034,-0.07921126789327203,-0.016647641260720953,0.10130015789812183
362,3620,0.02136934664936618,-0.02252214365920544,0.01263271664737713,-0.01547817385650697,0.003373352558504919,0.2396019257371534,9.424640309554443,-0.09386711499589756,0.0035110464271106007,0.13221294653878685
363,3630,0.00042473643480695975,-0.049663521737853676,0.01995737989846957,-0.007649876684515729,-0.16956793188570968,0.42100494062139965,9.211273783009263,-0.08290011463638139,-0.016419912938769928,0.14246724726387144
364,3640,0.010464616317715808,-0.015449151173105018,0.01753481532991171,-0.036572358805940224,-0.06062111858799925,0.5001745654581048,9.129317134094535,-0.07821286545367898,-0.022544598027043138,0.1511555683812468
365,3650,0.014579745723366056,-0.02425407401715569,0.014050652190826542,-0.013509634136724732,-0.016228439115341456,0.21029153079438823,9.268702010000935,-0.05641397966323875,-0.0211323130763819,0.15673442257029271
366,3660,0.0010808827336984544,-0.03562129491706501,0.0013256117812545272,-0.020128226411323967,-0.14546221542482238,0.30969428016302425,9.349241533549243,-0.1236903856251694,-0.024987812459103538,0.13756756224947359
367,3670,0.024021430491898626,-0.02962641840042184,0.019295236597774164,-0.026938457404931358,0.027309491274843833,0.36533483140488227,9.680610402601408,-0.09040668774623929,-0.026858953110063307,0.13190230086209215
368,3680,0.013821756094079313,-0.029033060361212053,0.011709103950874704,-0.04234528275672836,-0.1237557537357649,0.18809278715733135,9.226849471502419,-0.07988724887174019,-0.01417753848055158,0.10511416012369366
369,3690,-0.004218696612675481,-0.05900319183399513,0.004176766332699823,-0.04886165261210369,-0.24224548409148752,0.28866335590291664,9.092904626092524,-0.05057516636361695,-0.015988736110455037,0.04976042291375813
370,3700,0.019849894664410294,-0.025120231774335894,-0.011913628070317272,-0.040693437557874294,-0.32601515827484695,0.14771450823571125,9.33005661622464,-0.1227970193100649,-0.009559281876240734,0.042806755796021376
371,3710,0.006320620457865405,-0.020408482337665092,0.017733306475485183,-0.03507311436698418,-0.027112205814619164,0.17972837990562945,9.225381665715977,-0.07970878760619478,-0.02541217087667423,0.08680833336953944
372,3720,0.012936649838712792,-0.016165699873132808,0.019179108847505497,-0.019012717171615078,-0.09785586205604574,0.31631522755628483,9.585109722999709,-0.0952801764532229,-0.02371107468857298,0.10658256963037675
373,3730,0.010156073711023145,-0.03483967483787014,0.021608885335498602,-0.03811067178126608,-0.09074895382662523,0.5214972941549764,9.33495038234773,-0.0829528960398711,-0.019154970301764135,0.11328230040988528
374,3740,0.00526833665888936,-0.044953325338587674,-0.001329377942887281,-0.030249369151742575,-0.0014520491202616725,0.23708853852543904,9.65024657140976,-0.061196962360035585,-0.027463847719038932,0.1461017862204807
375,3750,0.0005869405018185041,-0.030841474413838707,-0.010274890654331284,-0.024531683404011337,-0.09194777374283224,0.513463728362187,9.354127348311852,-0.11022478776966246,-0.008724392262392194,0.06949349763638978
376,3760,0.02134785609926235,-0.031130319475394234,0.0252744520323666,-0.031110457615590056,-0.20306965415418102,0.439035934810594,9.572904065008764,-0.1077380715250368,-0.016603477457035554,0.07533529100691805
377,3770,-0.00765198184778562,-0.04078118265664445,0.01109234129330547,-0.043106193359314704,-0.23964004288849927,0.39019241106647806,9.428821123271096,-0.1083831321109874,-0.017620577453630333,0.16136136318889316
378,3780,-0.0006316797516294353,-0.04491563685572836,0.008775557741744705,-0.04561039343964664,-0.06167469411491404,0.12719550296737944,9.103302873289001,-0.1153835401889456,-0.013379775612176018,0.14459885477424883
379,3790,0.0053264530614707505,-0.05045943888470762,-0.003630934555917089,-0.029627758707109004,-0.1859677952278448,0.48784061288983743,9.408682579246294,-0.1074385895140594,-0.03512877284530905,0.09982141174652598
380,3800,0.008139888466244603,-0.024259968865351537,-0.013668321159784814,-0.028029081383960763,-0.0629541541110455,0.2242880483398338,9.058431405045498,-0.11681789989176816,-0.018421297168108808,0.11244052859748713
381,3810,0.0024896843859997134,-0.04328157731025192,0.013705794445360096,-0.01585050926659513,-0.023196443236980613,0.3397786493360765,9.194453871012517,-0.05301581387958948,-0.0001308566064382212,0.134259838730135
382,3820,-0.007473236669792022,-0.030986933024341884,-0.014033772026899887,-0.0317062003868539,-0.09861321319592856,0.3548473532466429,8.96061394788682,-0.11083725677133702,-0.030030314988849408,0.16410690423801066
383,3830,-0.020314647640165162,-0.03933357401203915,0.0042046007071462835,-0.030645005714089315,-0.018182252074163532,0.5852159768323134,9.246894233514215,-0.06860573819764221,-0.01794147258965384,0.10484341871950684
384,3840,0.007581947037735176,-0.04289768433280534,-0.014506286268472907,-0.049814739296876465,-0.014540434278898853,0.261933512135743,9.301399270369377,-0.12165475270720127,-0.028325594400246713,0.11322159067382778
385,3850,-0.010808103193240198,-0.027373351094125795,-0.006949864895486241,-0.03143003467683318,-0.18152370748723923,0.321191322850745,9.018046949766877,-0.12798300364253112,-0.022364806153519975,0.09044156765869046
386,3860,-0.011839410579882912,-0.04564530571217346,-0.001454525395981787,-0.02577084843030015,-0.02262765400759892,0.4960263080370101,9.151288246166946,-0.10927586945764907,-0.02329745771700878,0.13196872014618335
387,3870,-0.006893220422650901,-0.04496045996987631,-0.0132618184674624,-0.017607247394142,-0.21213404887481713,0.41112597976968956,9.509753620494106,-0.08529994588542059,-0.030807918233787594,0.07340325590306049
388,3880,-0.017677881524671202,-0.06239895304337281,-0.0011266466507984015,-0.0393330308085884,-0.1989043133871617,0.36049141311277466,9.316806252640946,-0.07465457214562995,-0.016057119908800887,0.06087428633274328
389,3890,0.002710421547159226,-0.043284867051222614,-0.008398944572225585,-0.04792141737409632,-0.2339428085440446,0.3896617394877255,9.135671757585062,-0.10811815744971925,-0.030413294399494077,0.09997336436051396
390,3900,0.009892120887889225,-0.04265856135201881,0.00403608888280029,-0.04058433789633254,0.07964903450223262,0.44516537041638404,9.38087634963302,-0.09734807804631353,-0.028071332907671824,0.0826011723026321
391,3910,0.006036116054662671,-0.024415686594358325,0.0011247138674668157,-0.0474851489403368,0.00032516701874826803,0.4414827030050944,9.105727388369603,-0.1122429333675943,-0.006778639785881651,0.09252155638352288
392,3920,0.01462603325563796,-0.023778674409180904,0.006864235431663372,-0.01915120439472126,-0.03187973330816646,0.4707646811776145,9.651578161698207,-0.05716839052487507,-0.02347783721849299,0.08495689668400425
393,3930,-0.0020339464261144354,-0.024610030179923803,0.003020098180367417,-0.03222066121134712,-0.03199501636693039,0.09890221176673233,8.957683244868994,-0.1427907293832253,-0.03577757477381939,0.043976689827905306
394,3940,0.01571933168648203,-0.027507389716061197,0.024348348352811383,-0.02162550792938087,-0.09970128447059853,0.16311375604079872,9.179675774488356,-0.12417211011384044,-0.0333779201318381,0.026598141129658984
395,3950,0.0048539136286662975,-0.04515610647702087,-0.005493871926796131,-0.018140633110235265,-0.13727512696905392,0.27817167957517785,9.25129999278133,-0.11183503699974386,-0.020438641247142807,0.0855591562920156
396,3960,0.011220508866989479,-0.004649091277065004,0.010695982801238587,-0.013793171060657111,-0.12955215141640516,0.1330718234773796,9.71933223838454,-0.09688560669319388,-0.026078667824405447,0.06064128872527101
397,3970,0.022799938332544744,-0.02899828666648524,-0.0005305951286455352,-0.016649017398898798,-0.1798872088165091,0.5531950667220082,9.54258689060972,-0.11296617452135602,-0.018938510016494492,0.06075009639571526
398,3980,0.004226213502143736,-0.03230496040911456,0.004663052489251781,-0.02194132117768443,-0.16752245213984515,0.36049906323717423,9.2667094771436,-0.11355861120273719,-0.035759834985953365,0.1450021744101213
399,3990,0.0058139052199014316,-0.017918257208587928,0.00716004629366237,-0.023092955810539207,-0.2337959500226966,0.272409773198724,9.41761667758929,-0.09913779983566497,-0.019475977207623285,0.12369567585985505
400,4000,0.02652440144173038,-0.0025143519118177478,0.004288839871169375,-0.011083932194312529,-0.21525044777953234,0.3362436996547795,9.640844953744937,-0.09540299625723599,-0.03580032754130191,0.07021078698386526
401,4010,0.004549688458868436,0.004531661121694487,0.01584288752405049,-0.003829756090892822,-0.033851693481103784,0.45530658532439994,9.222564136960449,-0.09643393760123171,-0.04598064627697363,0.049566826203208646
402,4020,0.033037007084104335,-0.0005995786652936586,0.03455768628503576,-0.004474892116813154,-0.158969935892401,0.25359624343911435,9.311816602690321,-0.06949526824803073,-0.046232555138526685,0.036799708596336675
403,4030,0.008978268865925775,0.0017135374811317224,0.01587513659806334,-0.018254551850093455,-0.24280454248484284,0.30384901876287046,9.104064898611535,-0.08481377060464987,-0.0265323456843496,0.05889868088107005
404,4040,0.04064262012547757,0.00020701260383074963,0.032106281388275766,-0.00111801986322768,-0.07677442900298502,0.192781480965712,9.225247394712422,-0.11756172846287608,-0.024541290095949547,0.11696861818925167
405,4050,0.02920490307339453,0.0001469804458361151,0.03539364794528675,0.0018285767607312021,-0.2358115566965852,0.2739410690534438,9.150974878614482,-0.09047740330794779,-0.033681335662997997,0.1300567197762938
406,4060,0.016693613732792236,0.003057583448984675,0.00974701514502101,-0.020868813642181627,-0.3553158622882151,0.17009782405109214,9.440248510941544,-0.09853624479008295,-0.04697900055205799,0.11159667986044322
407,4070,0.024657188601995193,-0.001970949560754067,0.01861786411365112,0.006496265043919002,-0.3326229488305522,0.25656110930976816,8.85722592319616,-0.07737515103565495,-0.02666492953951616,0.09739965744817207
408,4080,0.018243334241927103,-0.00594110776614081,0.03241843813954155,0.0140858512781279,-0.22886563805628107,0.3951841148011613,9.444295907240964,-0.09397036822192638,-0.043420998020443,0.02347431721487854
409,4090,0.027893315206640287,-0.016619968458780034,0.032527706006684955,-0.007960791402437252,-0.2618238770138655,0.21458912876539915,9.44025404705807,-0.05854842966452885,-0.035783672808578346,0.05672129710591034
410,4100,0.05498059969540997,0.023065930845425558,0.02325072198409054,0.004500497053312923,-0.198772780875479,0.19395677929414545,9.800564544841682,-0.06831461121285307,-0.051819792836781134,0.0899404068544894
411,4110,0.03631791722891614,-0.0018644683765018343,0.029483744605429327,-0.03297949521428224,-0.16242339989101137,0.3975642508310803,9.349913325541158,-0.09346762209255016,-0.014032470626650747,0.0480981535481025
412,4120,0.029248736105312402,0.013311114656263086,0.043839055678112374,0.012014243652573165,-0.2210463539454844,0.12369265149747838,9.513127707149817,-0.1055871619000253,-0.02385888501587212,0.08855135410134884
413,4130,0.047544274210662416,-0.007453418497700367,0.022500578049502364,0.030077575510210997,-0.19040586627705347,0.17126860826070917,9.596739138487147,-0.0761801409450362,-0.027530496222636695,0.09845968934735384
414,4140,0.02503623652702107,-0.024238213053420367,0.0096520830007462,0.0032259032671635842,-0.16897525907459082,0.20042871536771506,9.483546034996277,-0.11717633705383992,-0.03163981839349604,0.10722721054387274
415,4150,0.019028961226968354,-0.02245129023433877,0.012429247066402922,-0.002422928191228415,-0.10153650287248835,0.3217563159437594,9.14192439354457,-0.0843194988055608,-0.02786162302672185,0.004950897335850052
416,4160,0.03853287838195247,-0.014718893808310849,0.022437573590707416,0.005087732445019242,-0.21759637632617868,0.3621370554126144,9.326529708337214,-0.08483369026428061,-0.02525104363142771,0.08552118604501535
417,4170,0.03148968658594602,-0.011272697201593976,0.00833337100776621,-0.012756929479545428,-0.061549248090691316,0.2703569969642587,9.30544713171744,-0.09285104091737373,-0.034560499678282994,0.0821570156177756
418,4180,0.03424999969449833,-0.004677761377229867,0.03378245094326662,-0.004049263915515078,-0.20633574807560032,0.16991287042307246,8.99777317694304,-0.10312671354424982,-0.043520057229304604,0.032787001385129515
419,4190,0.030857000630423723,-0.007810387527166084,0.013166616673687822,0.0174260529824043,-0.25541926572810164,0.13807275511377692,9.468946883098738,-0.09065501680430137,-0.03429748266340211,0.11842367482849556
420,4200,0.017454876907633737,-0.0013040402763576549,0.026611099397836003,0.012676028506560612,-0.19051070178605206,0.17100371222090743,9.723357910789353,-0.059822437251663516,-0.033182237933097374,0.09383712008598039
421,4210,0.02429577115252881,0.0034665214368655743,0.015910832034268844,0.003566537591521831,-0.3305463246053668,0.23626042504915462,9.172152877149317,-0.09674572965195925,-0.03938157885585084,0.08488829673514195
422,4220,0.04396376517486818,0.010210979511423357,0.02326351198298998,0.0032030332793750982,-0.09623971137614498,0.1331941798747798,9.142464656922991,-0.08718052500352755,-0.053346330033224226,0.01763563678784163
423,4230,0.023580913026353425,-0.0053631763941889956,0.008642689533634361,0.013777373593880388,-0.4967221029219114,0.22698026491214562,9.184983067642905,-0.10683194395147268,-0.04148545548667837,0.060800594111049225
424,4240,0.02502071871356327,-0.0018215570316256532,0.02731935963059104,-0.005373835067063658,-0.430908307636235,0.4806211222691179,9.217302005140198,-0.10046957329440229,-0.021348397018413102,-0.003997234495446048
425,4250,0.0367066577463543,-0.007734245371990557,0.02541383053517586,-0.004388280028714752,-0.3096646514927527,0.022965199625872318,9.252688428695933,-0.05141844817069127,-0.049555019172906084,0.09531346453031572
426,4260,0.014551968089559265,-0.0007579315992945709,0.04108847489791406,0.014872180076790222,-0.31242682383182274,0.35625176605659403,9.384978051790997,-0.06477613750848626,-0.042525688069620704,0.061553963061644686
427,4270,0.012633745241413153,-0.000760731841042473,0.029009334995862727,0.001550220965308074,-0.2123090856913882,0.18888786302501354,9.598110250032041,-0.045478084289234694,-0.04193077839396368,0.009006587202575994
428,4280,0.014710041732490608,0.017335854464741694,0.02480955880515045,0.008777439104431699,-0.18688033049597136,0.16339639950288187,9.248212170903495,-0.09791320351341094,-0.04509642009145166,0.08102607781029017
429,4290,0.025677923001415075,-0.002379963461734146,0.017000557131059982,-0.002340649711803045,-0.3204119440093798,0.1529659886952382,9.422123533932316,-0.11040763091589664,-0.033167850357337075,0.020878003181177565
430,4300,0.04433390342980682,0.006207417723681711,0.03234889563296012,0.01692464260355077,-0.22346131683937773,0.2155799567908831,9.242392633812077,-0.07421329304399842,-0.01981903770165529,0.10304136074131809
431,4310,0.028037578420934274,-0.005695644812234288,0.01803806947879531,0.004484415981677756,-0.2681918682189207,0.32445864207014447,9.25725353634091,-0.09476021981481371,-0.03934893738303594,0.05799444365320259
432,4320,0.024341216589023513,-0.004303731638710262,0.02290164111124188,0.004718270448962281,-0.004690478871559017,0.14122732054341466,9.190234606414467,-0.06488285623891558,-0.05091915446804044,0.033479646279132656
433,4330,0.030368110665903846,0.005546315568487543,0.028798422052942127,-0.006918876762685062,-0.2465655479814574,0.1499899842947706,9.701831159556814,-0.07690705262839083,-0.04036698573747483,0.05801042779578493
434,4340,0.025172249481126747,-0.0004609099864480901,0.016146507001468368,-0.014637136985375936,-0.48178529668727155,0.14522282966714684,9.427214947461145,-0.028412274213063145,-0.039505215818812174,0.04144362404809994
435,4350,0.027853563324953496,-0.010265199505540846,0.010372332421712213,-0.0039035443870543253,-0.3048932992400595,0.06013167136940528,9.447082747693022,-0.08903962459521417,-0.056159874366108455,0.02274347387893018
436,4360,0.006641095038892218,0.00041415978533333904,-0.007407259460480478,-0.01603763710511226,-0.2238026942694782,0.3795540823030491,9.494657295451944,-0.012854233938024082,-0.04087371507049294,0.06655671799078658
437,4370,0.010281134554724852,-0.01317726655819057,0.010792556570888637,0.0023376972378555396,-0.22588998412120406,0.2110911684966913,9.513852281138908,-0.0657751537603964,-0.031236029478325635,0.04393378941046418
438,4380,0.025798176256786348,-0.011890389058826686,0.014869484734648015,0.006210547087283183,-0.2886769749028433,0.3287977827466152,9.63900472681009,-0.06597860436828251,-0.051209658801034244,0.06601048727654486
439,4390,0.029556038053038507,-0.01123309992264379,-0.0026833172871075124,0.003064241942725093,-0.33031837945520737,0.14953872500242926,9.572376875701396,-0.07051666312317759,-0.05429703692671364,0.027312386226799174
440,4400,0.021775453160919247,-0.007430650782609051,0.019948923183836762,-0.014095811225304148,-0.2029593320977687,0.3104889264644721,9.672944639557656,-0.06093186327868721,-0.04360542717451313,0.0518267154794993
441,4410,0.027433126401009235,-0.011491572706202428,0.013320232694887454,0.011579348199632866,-0.1886669897669671,0.22086508998768978,9.532854352701868,-0.07483353246822948,-0.046112832267688975,0.06910105872771413
442,4420,0.013316849250519257,0.027882122469717475,0.020316767586771964,0.0011871597955606201,-0.34087146468300417,0.1091473852651377,9.489063006598725,-0.10026818150989827,-0.04848915750984542,0.057597305303812525
443,4430,0.006733739288230449,-0.002215861699567041,0.007035147121677831,-0.002567448237867081,-0.14179121520961102,0.08305231488126479,9.714672261426033,-0.06393344407626166,-0.040456773921044534,0.024687726933419824
444,4440,0.018515330959623835,0.004522578308260366,0.039270148157392104,-0.004092626129431692,-0.3298285608183363,0.0470243254511481,9.186462896527175,-0.0667180426576681,-0.051448410557264096,0.04721031908157255
445,4450,0.009005259380371868,0.00818376345545795,0.010930363159889791,0.012961940853070156,-0.3493489500240591,0.09610163387425169,9.76821875790287,-0.03645690579641486,-0.039427315836590086,0.06218000143464405
446,4460,0.0132352511242777,0.011395125031722684,0.01834062651692481,0.005733515247632502,-0.38237606833694415,0.21038809954271387,9.792278799319085,-0.07087084747765565,-0.034949343815672274,0.00668256980131457
447,4470,0.030627074454214837,0.009172901686392992,0.026965564665859233,0.001113540329427563,-0.3990473728605638,0.22203015294404915,9.542453320627486,-0.09483836117350455,-0.033412122368016196,0.028737882341773418
448,4480,0.022163582386830055,0.02592445301237494,0.03922099253317703,0.008349051720158766,-0.18823354324685193,0.006731252362781132,9.554301727432652,-0.04982973900568404,-0.060104257298518045,0.06124796909645746
449,4490,0.038029774865276644,0.00379392620603969,0.031604603344768854,0.015470079638817793,-0.3204525806426296,0.28003675740242595,9.88144769716019,-0.057265344529899787,-0.0432212731344656,0.08184893651913287
450,4500,0.014937273755922874,0.007905646117456464,0.013086121206850427,0.020703589996815205,-0.30469493432328365,0.02028861176438443,9.383402540457936,-0.06542823947329775,-0.027400202288667564,0.10378633000710856
451,4510,0.0332002971570013,0.012738345917518077,0.02312669804712067,0.03248976193311282,-0.1404243273307362,0.24600759337064945,9.362891217884762,-0.0010843694887399252,-0.05006586783147194,0.02999376376070796
452,4520,-0.00539405135654699,0.023621264420835505,0.01272529873030584,0.00036077288424683253,-0.1494033552697238,0.09969816864600228,9.574936253479784,-0.054925283625450516,-0.0536314754932692,0.022307851170288686
453,4530,0.030381134825241064,0.008707736739459127,0.03601487661215817,0.01063264973796562,-0.5206895305571929,0.26759763207748827,9.77867708292931,-0.08308922283372747,-0.033135292913256315,0.04118116238113101
454,4540,0.04005187467109049,0.00778104557206313,0.04186062826213729,0.015275177993693292,-0.1704211028046052,0.14399718372809553,9.433067881967688,-0.05644899716689668,-0.03830462543021243,0.054224906932267
455,4550,0.05313151860704251,0.01728062694010204,0.020987541138862052,0.02357856908618756,-0.2488546979571889,0.2054012984561539,9.596439932410151,-0.030039283670181854,-0.052284682606795925,-0.014380251897794648
456,4560,0.0529364348810064,0.03303241796929194,0.043908242219575844,0.022697685439950457,-0.36232570946054415,0.13401911101552066,9.706222094424865,-0.058290739896635,-0.04870513023050776,0.026490437942373983
457,4570,0.024368149547749678,0.013337043321512445,0.033630511365905516,0.009741468735900535,-0.2907586203771892,0.08637125160541073,9.283456994091322,-0.058358666169788714,-0.04850613596962103,0.06054598669191904
458,4580,0.02936354786594244,0.02290543513360224,0.023985102125103824,0.02633706957064871,-0.2644138906236911,0.21468358836997842,9.730132458276211,-0.06834442448936534,-0.03437269787387346,0.09975951969944932
459,4590,0.028838708357891346,0.009060894307420651,0.027904303063264375,0.03226311016920219,-0.20808409948219198,0.13547093015130549,9.216009125955088,-0.029647164357413776,-0.06284692651792861,0.06638272306172409
460,4600,0.039983010492735185,0.028724530078742382,0.02484592973052791,7.534645634831895e-05,-0.1563146335984104,0.0817456687338124,9.22889620038358,-0.018676568229763657,-0.041340966261779806,0.04764889680437634
461,4610,0.03073871260215421,0.005369356694430526,0.04974277291753945,0.011405442016279122,-0.2746669568832277,0.2034698580482076,9.524051544052835,-0.04511944634881116,-0.036261469385770975,0.05070509175925883
462,4620,0.036543249165241404,0.035061990775008184,0.02539838627206234,0.021696482975666488,-0.28991027104580575,0.12335741472753585,9.186200880775422,-0.02013779253677252,-0.051146968168760625,-0.011839413976069357
463,4630,0.04466685202806489,0.042196475508131805,0.03173600147076745,0.004907634854963691,-0.2687917027508634,0.0359244156182353,9.439617042669799,-0.03894237996594556,-0.06018133608222702,0.038317575989114984
464,4640,0.02639150859585234,0.01735222896448002,0.04521846802409002,0.013067055697649153,-0.2790894276318429,0.352828212701725,9.867294058107133,-0.060047319381827405,-0.046227107230450565,0.028314114356243203
465,4650,0.01238139504624133,-0.001969825205299076,0.010695757126332788,0.002165081586855966,-0.21752532351467369,0.0885177970912848,9.522480965054482,-0.05976813174172696,-0.06252761015489183,0.10423802945398414
466,4660,0.02732018993543465,0.029588303332248933,0.04833135270774101,0.034798549257691755,-0.40397934105931455,0.27019432091439255,9.588716128522199,-0.05904746946459602,-0.03167686316017326,0.04879334169584728
467,4670,0.03520977095353746,0.025597597156140715,0.014650360155528848,0.02084052989877299,-0.18572243700403884,0.13256695240694633,9.818392625069546,-0.010388487408001947,-0.03225020993433926,0.0307872985842454
468,4680,0.0239615874736577,0.013038464306459434,0.04818972904629233,0.024782248799869823,-0.24956828630493003,0.26148669806411684,9.576221211252498,-0.05662463927512508,-0.060429416450375396,0.03548332510072552
469,4690,0.0339888875508682,0.031512589085904916,0.04329205400991549,0.031222606180038047,-0.3016669389803369,0.1486793294333433,9.608130445487701,-0.038040453582683834,-0.04353601555211696,0.0706973248009323
470,4700,-0.008218381180570576,0.014927226276411886,0.01445206722774763,0.01540950951595145,-0.36516834869122794,0.14246455391245075,9.480760044903464,-0.05251996282233863,-0.04476518952427493,0.06802621945183182
471,4710,0.01622990289598875,0.0013014491031087781,0.0225482631676035,0.005423610212192075,-0.22205064898100701,-0.09584769755237872,9.762654336370492,-0.03425880388548925,-0.06472903119100375,0.032910282199926914
472,4720,0.0313687193302437,-0.001279984785766684,0.030473835234887267,0.007183901481880497,-0.0663358678144294,-0.0004579402954853762,9.607886403989928,-0.03680896616263498,-0.04999662379202977,0.010603629155936394
473,4730,0.031437363014423514,0.013099998789103718,0.027744331289298492,0.019664379683738797,-0.32388494808135554,0.00824507534010506,9.634958906864739,-0.03320440763947316,-0.03428314818264143,0.08612966610247946
474,4740,0.024652367209132407,0.004452372101173965,0.022433931794853864,0.000686145835378198,-0.17167274252846162,0.1385147358112944,9.632647241859562,-0.03596499756568198,-0.059745969918657056,0.02849883255473281
475,4750,0.030918046626862258,0.019875114041324596,0.022808396361297268,0.003046305494416441,-0.3125239961934982,-0.01775754369167322,9.733759054882745,-0.06323001817217609,-0.0451033455277091,0.01267484748930912
476,4760,0.009977490668936771,0.008521293820113547,0.009998991159349935,-0.017363351062175972,-0.33227197541909387,0.17469245225825392,9.981604807495247,-0.013530991488555646,-0.05749434159279151,0.013727563124145161
477,4770,0.009642825854991606,0.00036381094635744814,0.012383388224430948,0.003320488957894347,-0.3087619146146764,0.10718603747880777,9.693837099371299,-0.017954055945416852,-0.05127755430444936,0.013835687264704154
478,4780,0.006840543658880658,0.0008652400144282422,0.01131526650880461,0.015556983406653227,-0.38548282179643445,0.15455546460549946,9.095373680083302,-0.014051008358065107,-0.05075075079699732,0.03223879831567347
479,4790,0.01362496584593176,0.011190991422411513,-0.00420681784722526,0.004259874915332534,-0.33350123880351834,-0.019519079093369182,9.940613934108837,-0.031113793602824204,-0.04030389012313562,0.01698830635124351
480,4800,0.009962212799133244,0.009973382978795783,0.026986004422946908,-0.005434218338387991,-0.3946335004628677,0.25118904561166655,9.911986757603843,-0.03949699407344768,-0.05282362585733184,0.037266338850218406
481,4810,0.024922851553579324,-0.015581710271109387,0.007697286132985591,0.008432836455607077,-0.2203848338455027,0.0010468595779752968,9.894431801366284,-0.02363015790918209,-0.040062798691500257,0.04825494938065451
482,4820,0.0037408964856177817,-0.0024426155871755052,0.014768168475327331,-0.011281709402371696,-0.16669517161909334,0.06605846639863272,9.34886315051975,-0.04260997149200889,-0.03685869091723906,0.016970249059654934
483,4830,-0.011694233523573187,0.00985813018878408,0.0018160974621182283,0.0016561829954602697,-0.15670566170997627,0.12987751967055056,9.52357121265915,-0.023059665933978086,-0.06464512684222848,0.0379335570796763
484,4840,-0.009815026808596791,-0.01476312399177572,-0.0033009048550735713,-0.013808246703786168,-0.3217753607506614,-0.0026357720669031026,9.79392903873487,-0.031185871258184485,-0.0374768411838056,0.014841564262484548
485,4850,-0.005024562348857186,-0.0085059849643929,-0.006760182757180821,0.00896545343386128,-0.4775807338040959,0.05968838670081175,9.813697375478352,0.008310542116196425,-0.06251595428885404,0.05996967585532285
486,4860,-0.0075704062818970665,-0.02008355323561417,-0.018651893635938523,-0.003603150880579578,-0.3281772746629816,0.07421906106283785,9.464144217476004,-0.027356401163975343,-0.06151493352992753,0.01620635087982898
487,4870,0.014386584608552692,0.009548096864731709,-0.0024358661089481665,-0.02392314194256262,-0.3696583483710192,0.06907234266224385,10.00234605274245,-0.024476644454345917,-0.05415888732051519,0.07716190062421008
488,4880,0.01660015822687167,0.01979967499038287,0.015846892974147528,0.0010977612917484375,-0.42400007527572653,0.13501994336885614,9.600108838439375,0.01627208556745495,-0.042521560112132685,0.012086903707678866
489,4890,-0.014628744251974848,-0.01561115870332034,0.0010576390827452178,-0.011340132343315691,-0.27225956742870716,-0.009811407334010952,9.802238436968796,0.030903163850208103,-0.04945189566299075,0.04463484763923794
490,4900,-0.007989612580255488,-0.014426357930250131,0.0031876630600472817,0.001080255982331648,-0.24897475263645022,-0.12331531808900809,9.875578135057868,-0.002505183733854008,-0.05942175428889701,0.01919420835948732
491,4910,0.003600021241646178,-0.011283361660221463,-0.014046958109107121,-0.013787468422988452,-0.23112232182490575,0.10914900736571177,9.825553980804138,0.011169139886570246,-0.0516783029879353,0.0056182793922481995
492,4920,0.014222858427246146,-0.0031796507648159797,-0.00781521967263411,-0.005574144064642543,-0.15087444667260558,0.0377735012159337,9.425548151461355,0.00401632131241241,-0.05632987392783741,0.010871245290974548
493,4930,0.0009037668702750578,-0.014488906406178458,0.0003841185020075268,0.0045114868420056495,-0.3455276116580239,-0.05972156408202366,9.527920766822078,-0.0034351932625983775,-0.05405395044165834,0.0065511822278831325
494,4940,-0.0003099148447296339,-0.02013595789344407,-0.0069875572155628516,0.005532652156036771,-0.25629102924463776,0.07995046496486,9.52163083922174,-0.031659546041453025,-0.042780090539981185,0.034947884520072234
495,4950,-0.011251510132178937,-0.0023810108856941164,-0.0005669607473153199,-0.004398076499799931,-0.17481229410504742,0.17874109557232185,10.100281622156002,-0.06213309469874537,-0.03324288921139312,-0.02819758768989496
496,4960,0.0008767335208236388,0.01292102803269356,0.012270557952007842,0.004978297417996582,-0.33660996592511844,-0.16190399071433942,9.472858406654943,0.004424783664381068,-0.04160544440560694,-0.0034971527709289824
497,4970,-0.00819586857814832,0.0037979845526147187,0.0033234627538380026,-0.008068793399149309,-0.2755939395731371,0.19171897681940822,9.937657756472412,-0.007581544262660077,-0.043474991085105136,-0.020331462867678902
498,4980,-0.022914692819657932,-0.01580876199847725,-0.0016847457877292357,0.001668448643115477,-0.28742815055852644,-0.04085371232965197,9.914935670506456,-0.00971972445072838,-0.04289141355462532,0.008112347107716324
499,4990,0.014412646992164517,-0.0050874352050581505,-0.011709801172627867,-0.01117502857917606,-0.3612479975771259,0.08897341418161842,10.030546161288845,0.006904226511872298,-0.030339576958853642,-0.015306580050966188
500,5000,0.010455643080862536,-0.0003100141586507149,0.020424905963585628,-0.0046654457838377645,-0.3687654324731719,-0.012231269534571196,10.130705737969492,0.03486319988430498,-0.05579060475718024,-0.027273923359006132
501,5010,0.007575505603600983,-0.02624363081910879,-0.020809242959907014,-0.014330079799422508,-0.3241783388854897,0.015338508740812296,9.79011529044163,0.03864628488095914,-0.0465797608260268,0.02370340913060374
502,5020,-0.004835553831301608,0.021271460632347798,0.006972448646293315,-0.0043929408416402355,-0.16160419710464996,0.008983034375835582,10.004259522637176,-0.0018758002114119786,-0.049601859637190285,0.039720318067244555
503,5030,0.005031542902938392,0.008389285832076439,-0.003932392498060932,-0.00022137579310290258,-0.18037593991119927,-0.19095316659180112,9.680340974765953,0.017227993823545888,-0.04562097258482075,-0.019288549248962377
504,5040,-5.82266349253936e-05,-0.007507904282617104,0.01280368413747998,0.0050066560811958954,-0.3422468107196347,-0.0319522986733156,9.971467510584974,-0.0003550830974416927,-0.07045398106023117,-0.01832896903188908
505,5050,0.012179051855635897,0.014958686330620637,0.002106053207417945,-0.019619156807574725,-0.33231827068237857,-0.024363318972308805,10.079069335253585,0.011566424049562308,-0.059710656764485094,-0.02917324517667857
506,5060,0.001451995869209889,0.0270140763643708,0.015371458786629736,0.016356648235299313,-0.20136864139521277,-0.13900316702102425,9.809455992679013,-0.01307311161815744,-0.06208349996149662,0.04293283831553539
507,5070,0.017279486698654766,0.0003189304906990927,0.010635161828510495,0.020349907175550477,-0.14720500812782628,0.03125915464190561,9.6716391133799,0.012932930674745938,-0.054671243745356535,-0.005321407237090088
508,5080,0.01789198686976034,0.007998821584250596,0.008776557055316162,0.016401090639053414,-0.2808380324497433,-0.08478709938216383,9.44352724133574,0.011287601974849874,-0.04240067974638598,-0.03812490578687516
509,5090,0.019329010006512805,0.01828196054077575,-0.002392959190942555,0.0021989253912238493,-0.35952014287118456,-0.08138257341993642,9.823261871323327,0.03965712668064485,-0.052305838623746485,0.05564314540555588
510,5100,-0.004037316905664477,-0.006128710833337672,0.0077527077269051664,-0.008388940069111717,-0.23797192361042271,-0.04068432548623781,9.826254780294299,0.021385058306694998,-0.03978287745676604,-0.050361338495277186
511,5110,0.0013231059315450507,-0.011590523419578162,-0.0007942425197092276,0.0018093495240117212,-0.254870011737791,-0.07291435877569838,9.94211361430503,0.03556793149104079,-0.06328426178778743,0.0007443086219742941
512,5120,0.008061837362069675,0.01771794952384569,0.0030403662550603718,0.0017501489723765339,-0.26612515092639555,-0.202677271100785,10.381492569402074,-0.011761053490256254,-0.06235932460863964,0.005283302705828432
513,5130,0.014430046308426911,0.007915718935458855,0.012757338618116322,0.02068570979236384,-0.4851033970959731,-0.015423959258330327,9.880194576601003,0.020489937152515465,-0.04664554470185489,0.005390644039774508
514,5140,0.0008318781256701842,0.008249981392663122,0.003614461953714707,0.01985696310543793,-0.36331592751799224,0.12318080992362815,9.76583167828434,0.026088619850039775,-0.056288137747590526,-0.03213103572005502
515,5150,0.00886607123307079,-0.001785551634225742,0.017393911970851415,0.016103294864799188,-0.1437474373925523,-0.03004495860572958,9.916740664601052,0.01879609427580494,-0.049709020403872255,-0.05081061660615764
516,5160,0.003592907139414443,0.001346854276233112,-0.012465715305370644,-0.005285111742102873,-0.23521790605175322,-0.030931784553112317,9.452418918138234,-0.0027881656201599533,-0.05887928672456806,0.004450107213995004
517,5170,-0.003076575565125723,0.0013023510497069692,-0.005461297251064988,0.016888017808978834,-0.33495566980845326,-0.04207208856860477,9.981954332382475,0.025277443630305985,-0.03959425552567864,-0.01823904799828326
518,5180,-0.007879878979979523,0.003831885712855695,0.00028740372955164987,0.008375147753891284,-0.40662245577673384,-0.041475412559950145,10.006379129152872,0.0018902722758397418,-0.04191501724301111,-0.014099119686614339
519,5190,-0.012964756172570056,0.006810047886765008,-0.023111594245533384,-0.018729357122361626,-0.37809208604732647,-0.05135264361658236,10.197136960386537,0.03841547596573069,-0.0547990699720967,-0.04468473437229322
520,5200,-0.007135776360340671,-0.0009596267815547496,0.0031163088350900404,-0.016721891058741143,-0.16145817301495477,-0.21573794818396064,9.767386678365643,0.011235898313523255,-0.05037472951729845,-0.006745107310985571
521,5210,-0.019227655735263822,0.003257923912177558,-0.016186713736388303,0.007742305030350897,-0.33516517942186935,-0.033161279748537165,9.991551675880903,0.03255294606742529,-0.06301611890965235,-0.07666092634861849
522,5220,-0.010152058011565468,-0.01556977152261778,-0.003372259156225398,-0.004332130623778606,-0.1597355094341475,-0.1444151373090408,9.876286736154,0.024804682072111863,-0.0487996037665889,0.013847629377155394
523,5230,-0.006197868181963299,0.005040975293128796,-0.004389387040155769,0.00043785370452852296,-0.22109317038790227,-0.1456327630984171,10.039670043246787,0.00573065805375925,-0.049575433860516965,-0.006945047094220735
524,5240,-0.015289312467644485,0.0056526969674645725,-0.030854961523555602,-0.02316757111852217,-0.28903647490315953,-0.07876671163614345,10.183405836063983,0.03063937588030733,-0.060094201700033774,0.011398926892670722
525,5250,-0.019600383276381896,-0.00709772601519389,-0.02162486083976172,-0.00018007381053290327,-0.28050411584622287,-0.10045874985150095,9.949522652723568,0.03377948419459235,-0.044870944102916394,0.007132810411927565
526,5260,-0.025365127210161084,0.01113545824843197,0.00621854475138418,-0.011114973980480827,-0.19921031267032813,0.030254266263678525,9.997628136753034,0.03276679214875943,-0.04007052732506139,-0.04270337840868646
527,5270,-0.019407723017702237,-0.02571484139863937,-0.025543619988798432,-0.027610301574541127,-0.3835902884251625,-0.01921577930536965,9.826484997188256,0.00024711803734175225,-0.059939449940102335,-0.053137364501653656
528,5280,-0.028466234145864806,-0.01604685218056989,-0.031992147284497896,0.00022765234483958403,-0.41209688034560105,0.059748989728233975,9.673155124523806,0.0608363593403742,-0.0614716848321722,-0.10748820494177062
529,5290,-0.012081754662403311,-0.01953576078343093,-0.021661220339546653,-0.0340180543410142,-0.3577981850149279,-0.34473956696852304,10.350417986357828,0.06259675821333388,-0.05208318250198755,0.012756986248861561
530,5300,-0.027879043016434082,-0.02264470751878273,-0.029560635742814236,-0.02299855510522629,-0.28873665127583664,-0.28853863211608344,10.250800769768148,0.02554582324318392,-0.044076836344148045,-0.010102752397410684
531,5310,-0.030762909417486634,-0.011409684588953207,-0.038434902096393726,-0.035879300181385576,-0.4240664179250576,0.012338847625323793,9.842254139064794,0.053932164797023355,-0.04511805148882168,-0.011596411872791975
532,5320,-0.03079191669576814,-0.003682454754188484,-0.029011899111784943,0.0065774377399813524,-0.33882176427050215,-0.2603718782195267,9.738385596285386,0.05843290278259185,-0.045441444842287064,-0.014074180923815013
533,5330,-0.03874573972385769,-0.011718098941625562,-0.02062048759834205,-0.020349058250257023,-0.4110145139133199,-0.17962002613991607,10.122114702317223,0.045710881226263524,-0.04879140956019429,-0.05427548085689595
534,5340,-0.03030041774395599,-0.03511196081192912,-0.04468045849231924,-0.0365319762478402,-0.40291619303080917,-0.2523650938637759,9.92018708335663,0.040484640314575944,-0.046886031465943515,-0.008047124008600345
535,5350,-0.014092014190101566,-0.0018000125254527908,-0.030997056564594064,-0.019238249270652548,-0.1815740088557753,-0.04819692112876302,10.375082192779823,0.014862220431941502,-0.04711086806756215,-0.02186415803370434
536,5360,-0.012217814698897935,-0.007951301914203672,-0.013867317910194316,0.0016533999391460628,-0.17888101998571965,-0.27476041831830356,10.50513134997481,0.03358350723963033,-0.04316020408162682,-0.08432932093899545
537,5370,-0.031206811837098333,-0.022285573513675085,-0.03953863218999601,-0.023965510414217957,-0.1897652833797962,-0.042504286585253334,10.012738133777756,0.03401158005956657,-0.04794669674797909,-0.05692925056993589
538,5380,-0.03635619630524282,-0.03220959525166134,-0.02996813593597815,0.0016967743205204243,-0.28029971052698427,-0.010155710847354185,10.323577535257122,0.07712087472819483,-0.04938571106481548,-0.03558239304728951
539,5390,-0.026600806899155983,-0.038358963700201976,-0.03073696486470598,-0.030391266227524878,-0.28834610474999833,-0.14309931078012883,10.15566691240924,0.055340758901322104,-0.044643623943171444,-0.0717199179512432
540,5400,-0.03993584322660032,-0.024198112816387986,-0.03630733809133478,-0.04005665294371505,-0.2535934477395558,-0.22490642347770867,10.46034807335376,0.04808425035430091,-0.0765863233382948,0.023587945565777618
541,5410,-0.04195248606399064,-0.026269575168372968,-0.02549038082882775,-0.017687590529866074,-0.08696968616733514,-0.21409251211296365,10.253455702792722,0.027527379946668377,-0.045875366978386664,-0.04235023252958752
542,5420,-0.04324510259444532,-0.025392562200974127,-0.03520914447979812,-0.013225669232416474,-0.19195301451477959,-0.24932091796415579,9.947112948419248,0.06947062383648289,-0.04212717619629862,-0.04012932485055929
543,5430,-0.04001521098206047,0.00017033511562878495,-0.04301613999006728,-0.03612809683658492,-0.34062464602005127,-0.06911966490208264,10.232194702492405,0.06342170666982397,-0.03144134979510602,-0.05095875348195214
544,5440,-0.016787942022000013,-0.014715881599375053,-0.025579514401096088,-0.027750247287384185,-0.34756787247542054,0.07343328768474353,10.036800970468368,0.028290814936622076,-0.051797058586265654,-0.05745294350866936
545,5450,-0.03283249725488402,-0.021398767164928213,-0.04169832389598875,-0.02476982397914183,-0.3428121185916755,-0.1274825331046692,10.189012715184166,0.04908409458715346,-0.05650360298107376,-0.017171746874786138
546,5460,-0.02481845844265087,-0.028823239741999372,-0.015972068630497646,-0.025572870911983937,-0.020560462887049102,-0.05649312725005662,10.3794972812526,0.05166908642959932,-0.02942750135887077,0.0005518674739743018
547,5470,-0.04459248427191334,-0.009807228632682019,-0.029617668649478103,-0.010387794437065214,-0.5116263580848082,-0.19894426321930106,10.107143760193328,0.09434846038309616,-0.041844538803011165,-0.0928771842409781
548,5480,-0.046978494934625664,-0.021351978552986883,-0.028676231041581488,-0.020861106213861974,-0.3062642655423164,-0.07882895236190723,10.248367230897717,0.05710067279430042,-0.06069915278519604,-0.04417212225436171
549,5490,-0.054604194241133906,-0.023164787110242852,-0.03826329765315136,-0.01923894623012723,-0.40082202046020027,-0.1640173640154659,10.316448485595348,0.0346014710834545,-0.049775510322557774,-0.09051900585676403
550,5500,-0.03498622358259842,-0.005679465698534328,-0.029553105622261162,0.008651848593834586,-0.2014166091389315,-0.19040802804096343,9.853497070009208,0.04652840561699208,-0.05168712569627142,-0.020154311669495592
551,5510,-0.015377963458803498,-0.01200249793102159,-0.016880869889889946,-0.008265241780155386,-0.560508175742561,-0.23290731911263884,10.015444556228555,0.0906643562648205,-0.058164572673565784,-0.08194403197965461
552,5520,-0.01880427752189857,-0.009905084983430108,-0.03879777748388057,-0.014778157720719607,-0.28002923967322724,-0.01648981259899518,9.855783909201948,0.09134626572170265,-0.05412995872526037,-0.09473405299760962
553,5530,-0.02437369804086044,0.00458129687977956,-0.02134478128665467,0.0018221853039628484,-0.3720735880916659,-0.09494083467045285,9.739773554063104,0.06893965512781537,-0.04896986140814908,-0.04872880403400741
554,5540,-0.017636868623703547,0.006082649142930472,-0.024817429614272246,-0.0035692178379648333,-0.21781920213362235,-0.018583296932108168,10.332400563633671,0.051965104703256736,-0.037666552578929494,-0.05255019245267449
555,5550,-0.031011887883318358,-0.0021378078590818268,-0.026990304738760573,-0.014728875395404033,-0.2446487504363378,-0.15658867589489722,9.806984282457186,0.06388567116898591,-0.05368062326532873,-0.010565006818133792
556,5560,-0.02624906756972775,0.005312009517995955,-0.011056037587863332,-0.0154048790669029,-0.23953497978847346,-0.40089655767567056,10.060283530930201,0.07805996009018253,-0.04282834598245636,-0.061729202850890216
557,5570,-0.03152137190084786,-0.028169116499211597,-0.025774192037194617,0.0027635973702056747,-0.4305334050773404,-0.2880731985041085,10.16789947041595,0.09570785875954868,-0.051573544474378605,-0.0532962355879139
558,5580,-0.01237227787006892,-0.0037629965602185202,-0.026004408545008663,0.006496055179360483,-0.4063856069293034,0.036226850484238876,10.303419833938225,0.08028705678001641,-0.03604437997751597,-0.04111447844954662
