index,elapse_time,susp_fl,susp_fr,susp_rl,susp_rr,acc_x,acc_y,acc_z,rot_x,rot_y,rot_z
0,0,0.0006748127715835104,-0.02150781444643156,-0.0037360138454397684,-0.0031512424471589863,-0.11525324910657803,0.3110448298405849,9.8967340581661,-0.013496749859869516,0.015404342122990067,0.002476033288054736
1,10,-0.0026677209908373798,-0.0013340075502114505,0.014789869424734798,-0.0013648762741725138,-0.047613888671402066,-0.25224101615682276,9.548962462268896,0.014063602249773783,-0.0010145961160857397,0.039620318148431144
2,20,-0.01591835496169798,0.005837582001757623,0.010010522760159766,0.01101967938947834,0.15450144727638115,-0.09071884452019341,10.050048518213922,0.017037989974546346,-0.007884227887551366,-3.227879033436756e-05
3,30,0.0025916959855945007,0.010513451903338845,8.296987287344302e-06,0.0062504914017017035,0.07988063824581322,-0.11198555472696242,10.021957381598499,0.038648358757542405,-0.006689799458918944,-0.05225784031476591
4,40,0.020224628331419046,0.00562057476994139,0.004505856115664153,-0.01647338833401549,-0.023269324331277298,-0.008022752641003491,9.724843889886243,-0.009862215511189314,0.011550106064184646,-0.015405744274188601
5,50,0.010761552247266076,-0.007758231072246102,0.015050884469308237,0.01110544402036251,0.14489591604376187,-0.03404188531362718,9.996566049306912,0.02056635331135258,0.0004545027996124935,-0.012242897542976994
6,60,0.009109354777430141,0.011093493962126616,0.012173350426659048,0.008254779300802461,0.015468311221085341,0.10401028127432005,9.882998360295574,-0.02606134961457631,0.015246293719431418,0.00638773068777839
7,70,0.014888796097064148,0.025423085508554447,0.005218953689261346,0.006723410007485151,0.015675782949617967,-0.05081915149609687,9.946588020086503,0.008232240846283673,-0.007960900346353286,0.033105565153273925
8,80,0.0007048815795851465,0.004768445369228536,0.005753010451422978,0.009182687045316329,-0.0062922625080976125,0.3050581938290813,9.859480926106334,0.022837312523424087,0.010675201510743484,0.029926660929620458
9,90,0.005832004605029835,0.03881814744140263,-0.0005595555582138906,0.015646878821042928,-0.03552516084613502,-0.09115794197125912,9.58273544611873,0.038600413949231395,0.022981598783079916,-0.015917009735584867
10,100,0.02338730097635318,0.015541077697902113,0.026306795635260376,0.009538576588283538,0.3107744303020683,-0.08177079197481896,9.85213849145402,0.02793784549677089,0.02458712188684844,0.009319618245836436
11,110,0.019953571182446193,0.03652048500638256,0.022422419476584854,0.042026774772443494,0.007288507511658347,0.2074444404472188,10.400388922760936,-0.014151242386643514,0.014927186563628061,-0.015020179294054322
12,120,0.01258022013416164,0.01879631018409668,0.013646821067343263,-0.00039981568821487743,-0.0475118799494604,0.04883797352309147,9.805404979349936,0.03849329331665159,-0.01200050285069907,0.021605776664687455
13,130,0.002235444617351999,0.01102599017967853,0.016612553065119193,0.014783622852841495,-0.006062359800018534,0.02078729557286412,9.768606625668797,0.03690783100750322,0.014300125065454802,0.02594310407210183
14,140,0.017540075446192016,0.025664199217058804,0.020361056880501598,0.023894507379473136,-0.008734293005735,0.06904573650732473,9.982262176121326,0.03699047742796573,0.0054058004727516994,0.08630243471726146
15,150,0.017380825860190862,0.01577805299416947,0.02814381122774521,0.019021061056948646,-0.07764022979815316,0.22569082149549913,10.025020122774983,-0.0184145344329433,0.003668811871331119,0.06034081888080928
16,160,0.027608779855912563,0.018951908700356263,0.014103491481719457,0.01293744371682587,0.10393496280293874,0.17394541399823668,9.961471790763095,0.040012444469936806,0.0029668365472083694,0.05104904855121686
17,170,0.016756632606755237,0.02087788964915415,0.020991343928362563,0.018344679537494475,0.08830947744154113,0.35332477747296054,9.727313686378432,0.03490879223428417,-0.002008459696306742,-0.007769497373937598
18,180,0.015903408200174253,0.006105190915530722,0.023264110327299733,0.012650919960478816,0.06402858844098877,0.11531129649183917,9.57598611593535,-0.003469185963546756,-0.0074038411513840455,0.08837318791622259
19,190,0.029603037132160247,-0.0008600042752764728,0.03002215363027756,0.017949634259999223,-0.019610066612896944,-0.10293706724813176,9.770481639182936,0.044005981310090134,0.01452885126134586,0.029323350495769174
20,200,0.021024076681454555,0.0010908013289781214,0.002702281826506044,0.01235995089095407,-0.042760046613469854,0.03788716685947122,10.300745562189388,0.01728946527738916,0.0010855481458528164,0.0843617145829916
21,210,0.021519532451318518,0.0068585221268209744,0.02784382807088253,0.016096492033849157,0.09989360420407081,0.12870445458088323,9.98287523749531,0.020233292341990446,-0.0008246508486901005,0.006998139991556683
22,220,0.020617503728821377,0.019205415596160576,0.017783256388510114,0.002009563773319773,-0.0787561935442112,0.2789728683823942,9.952215353377575,0.040697101616822134,0.004372124029156233,0.013768528406059001
23,230,0.004311614387679269,0.001292202588272659,0.01672633689828204,0.00666319196297278,0.14198855870438187,0.07166941392637013,9.731214886348605,0.0718640203824712,0.02270473409669612,-0.01122765095055162
24,240,0.01797270217681629,0.0013870264426709958,0.00450276372515482,0.007820565267179013,0.17095509527841896,0.25855412597762517,9.976119403139617,0.007150523585551481,0.018858354174405352,-0.025123355346306584
25,250,0.014981935008222733,0.02685402726575335,0.03219939631863159,0.01401226494992834,0.09149451187738925,0.04738462634044615,9.78508284842343,0.09210916675077331,0.008091523409341217,0.09865329812523123
26,260,0.01767924513334721,0.018386729793603625,0.04004136793560075,0.02019680564609637,0.10820089680523283,0.11111520082788404,9.83223226061422,0.01844295125517477,0.013626850323368508,0.01558334152360769
27,270,-0.001996278061936722,0.0050180167231239775,0.001682179262695072,-0.0027049268372506606,0.0904463103344316,0.2278186893838507,9.99739882373668,0.01655549874594316,0.013230022994189848,0.0737654065377226
28,280,0.012275171619258183,-0.002251772656362926,-0.007386531433770089,-0.004112974130440153,0.10580441270550157,0.005459604381384647,9.957392758113057,0.07075026802883307,0.02067688360975195,-0.028911599551503603
29,290,0.00028245805552887335,-0.004026470871949196,0.03037393635579831,0.008606002875994336,0.04585322851064321,0.03785015189519029,10.212456139587763,0.030684492267542707,-0.0008196877099110236,0.07847468346986376
30,300,0.017597465834555553,0.006422131906152626,0.013215154402588922,-0.003277815291561081,-0.01421825182764494,0.004553892599759124,9.928858630011014,0.051146113700883164,0.01246982467587901,-0.021349711768996874
31,310,0.027827548309684168,0.006938652183518507,0.016699105068531388,0.01147651863181729,0.21978821510846097,0.0777727239616721,10.105572903312407,0.04361441448850331,0.008111669813990367,0.04845585585328238
32,320,0.020620722642877405,-0.006868041668952719,-0.017888700330069368,0.0007923077881499384,0.01108686611777332,0.25724132244147757,9.983363539786325,0.0012185810842543846,0.003381486399430962,0.06779381043742388
33,330,0.014895039726181607,0.001851119634085977,0.024057885484963504,0.0014733395394678083,0.073548885526488,-0.09989006610908123,9.776405749970898,0.042726335835279544,0.02307727226956672,0.06627533427108341
34,340,0.010598162200217889,0.003107320420288532,0.03388850529670505,0.0016361903673489673,-0.03525240709494461,0.24881271348673617,10.109931740638508,0.06431627009418567,0.022875515769097497,0.02187042452506734
35,350,-0.006225262546234308,0.01524680015167954,0.02019546435036968,-0.004300281805820566,0.19513288776763937,0.10296453930207848,10.040374785986963,0.048024248724857714,0.01403870093074022,-0.001136597139522913
36,360,-0.010280001975695598,-0.008140511984776728,0.0037456990781040687,-0.00846053752111733,0.13793214966489725,0.262723242292521,9.995101416544934,0.017705924359432728,0.025738447772552395,0.029978410735288587
37,370,0.00531231895142141,0.010757547512187762,0.018358408394673342,-0.0013133041187487456,0.008358516333019567,0.27308156136625467,9.99506673179676,0.04297044445224935,0.02128138025926523,0.01724352063030915
38,380,-0.0013774095663747956,-0.007074451717287356,0.02408122157416769,-0.011025232574149205,-0.07596753298831775,-0.037785178423017346,10.134238905365585,0.04547661405710199,-0.001212126311491965,0.09121637945567089
39,390,0.01636207056266878,0.010457470840864968,0.02820200436031445,0.021958152744202385,0.18821856973499979,-0.03343426498217544,9.831006164334644,0.040787189968452854,0.02442960978541902,0.14585614779835143
40,400,-0.0024466943352776695,0.006009810595244402,0.019752209988170503,0.0014600896095993657,-0.05225771628689839,0.1673916344525426,9.644812678718793,0.1021400612682915,0.017822165546894038,0.05524778470159417
41,410,0.011810935392137588,-0.000499182313474513,0.03667364092036291,-0.009345212843142178,0.23261267994188453,0.3608469682469278,9.928782943624396,0.03910014203696049,0.017625024462444065,0.05591287725121419
42,420,0.0012599860611809243,-0.0036053960243074955,0.011026421414956043,-0.018241961450353908,0.09802570695275721,0.21828743311850088,10.376115234277496,0.01694607848085356,0.03562620284245244,0.09752049691183996
43,430,0.033690405563527995,0.026382754796864562,0.010544530625132359,0.00279866558558438,-0.009746583758086888,0.06639410039003998,9.824185996503013,0.04342490383831369,0.020584196177244943,0.0070335998999740985
44,440,0.03328562146907356,0.004389147139192856,0.03680578973449539,-0.0024013963932626703,0.08863575501609855,0.07903995941442608,9.77646575786477,0.06709933104276697,0.010665393513312573,0.05278313322761191
45,450,0.015058614876275089,0.03181031043053134,0.05111966676143921,0.022473227282803276,0.0323024582176739,0.1795552341920819,10.056475280515915,0.060569797337984885,0.021026928540235988,0.024569218470836866
46,460,0.009106306516313646,-0.00833638558892353,0.015907459130111448,0.004203937282242971,0.16049307100786395,0.10991467737959675,10.41155739296112,0.04903217021904499,0.024281680055510162,0.09460820252997845
47,470,0.010537659281070382,-0.002026304333257456,0.03091042171713271,0.004882826734045723,0.03586263104513682,0.2224038961913694,10.176360111194558,0.03535380870815037,0.027312215751394447,0.007953915194920612
48,480,0.029334308847853797,-0.0065005761786792945,0.022100248531377237,0.014038139280960971,0.26915998305998856,0.2910543207434701,10.23063738920478,0.052072616295461775,0.010976375765104669,0.01347644701427413
49,490,0.027294063087560976,-0.007240141745895863,0.02710609412055197,0.0035246515867675436,0.010053154440686538,0.05151005011999966,10.002052067990514,0.06506537971888611,0.01914496583314961,0.06905862117393077
50,500,0.03577942467111321,0.013973818959430817,0.04529562987431404,0.01740257057939337,0.22995133589656772,0.08029102249576257,10.183760520807459,0.037919763089884234,0.029437608265351786,0.0351772402155047
51,510,0.04889300636831723,0.029299628262140602,0.03009597387650171,0.016254322512371033,0.2231590555388193,0.22156476618423818,9.979728938789023,0.040603785241233384,0.02442972764244858,0.08898567898781405
52,520,0.02049518159660487,0.0008513874603439421,0.027655002378914013,0.005198435005992753,0.12216154197131222,0.23595610870433675,10.167655719234999,0.06931118592540059,0.02474827334028162,0.0975180922516056
53,530,0.016297012666701867,0.017244302138230486,0.041887518361881045,-0.001535255106352486,0.18409415065069673,0.23917702606514424,9.820499379289098,0.061767884983866,0.01995854325599723,0.07847388832427508
54,540,0.03909122873176311,0.028115133718170232,0.0434443967266248,0.02266990153770994,0.1036833720968556,0.26076325587970767,9.985374536094898,0.04895711960189091,0.022460540009984164,0.04743403764378055
55,550,0.04153578365597327,0.022947405248485677,0.03760939694679671,0.030039912449287262,0.3027381096689379,0.08765276883342578,10.279794617362473,0.12021775929944159,0.024594782247514962,0.01040737923862765
56,560,0.052258855541410645,0.0024184097781587595,0.04012127620107292,0.024178260261160805,0.19606318731006772,0.1958220266099809,10.045295199742286,0.08855347043932221,0.02308473338311807,0.09522227853001677
57,570,0.029759887548699272,0.022483260371888393,0.04989126217329616,0.009361360345672032,0.2636997422307089,0.1217147867216285,10.128991777393184,0.08016468063817642,0.015830214566037715,0.00402537475092433
58,580,0.05833992385103187,0.0072752146343337525,0.033060885480438174,-0.0011710634715227644,0.15884844085743835,0.16817942948593553,10.368791488203714,0.0851772145712151,0.023475213722883477,0.07026682807025703
59,590,0.047014932209811136,0.01072738963594714,0.03650030861205345,0.008956595597873415,0.10798222908755531,0.26918794985961764,10.003957492655786,0.078859333964969,0.026533453933052314,0.08513755972421454
60,600,0.032295372762187406,-0.00670389173671288,0.03823981536688322,-0.00714659209722533,0.20585320525738232,0.2568671432222939,10.49972608280286,0.0764609396717541,0.014454842794199198,0.007848034243887402
61,610,0.0314849292803135,0.01103561596615682,0.034723055261906124,-0.007936494705558544,0.11631340626738132,0.044956243314360246,9.998115597944281,0.08723533111543923,0.036931193716978034,0.02664684876672346
62,620,0.02006398048444708,0.011504115089234051,0.03523325200405973,0.010922376311903206,0.27162108819007325,0.18359347010854407,10.150691412605656,0.0757377485735199,0.025614762087010787,0.04982535694225669
63,630,0.04478644703991999,0.009356393854345653,0.035480107748193754,0.0010177174285887214,0.2566826504298197,0.2529519865927838,10.005126445566399,0.0871610995903117,0.02924054098334761,0.025183058272084904
64,640,0.038728608055444085,-0.00764595010362424,0.04416930006110595,0.029012891056709733,0.14457098629244636,0.32261744849382573,10.348927508631366,0.0649875805666362,0.0257581535551513,0.09536426377464387
65,650,0.043029192005878424,-0.0015079521807495264,0.026187092926416217,0.005553714123220609,0.05327956344771864,0.17477572921862844,10.123694571952871,0.06746331585998228,0.02447841631648403,0.09419698021169258
66,660,0.05090186993811368,0.02109845535108467,0.04292990460000422,1.5633542367836546e-05,0.22008865701659422,0.3265492857509794,10.498824328129821,0.055104845739153197,0.028706974559057248,0.13385401737455513
67,670,0.0383694157881502,0.003950455608461576,0.02176324786628891,-0.010102858995344934,0.2710638231172292,0.19878093418819465,10.291976070035933,0.07843969958198399,0.02848430898778233,0.11210141885056316
68,680,0.027440726719020047,0.020861608750320063,0.04576402827408711,0.012631174259236586,0.24243380940432457,0.3273376655500769,10.200401313876808,0.09149791450726713,0.042226346042290176,0.1269641804154344
69,690,0.03455784591854605,0.00923020378940237,0.034907423711427264,0.01075556544787447,0.3616019994833247,0.08297159432749314,10.151066491065956,0.030240859462587998,0.05216892104874153,0.08478995102941272
70,700,0.04007215504015188,0.0167446593843844,0.03217726892442649,0.025279328973533615,0.22128839783940876,0.19108578973746174,10.1373071336355,0.09242317343229013,0.03947339079840363,0.11791059941285902
71,710,0.029766696205437974,0.022468753097672246,0.05625729404421366,0.027162564951630216,0.20677551452585444,0.13703109893049262,10.024127022484837,0.10729451814200602,0.03615225844414122,0.06439471981489063
72,720,0.03420136333136159,-0.0038764920305636615,0.04190479503855088,-0.0016877094887722665,0.18168807009569488,0.33589333732930393,10.086877028239302,0.06356408959575664,0.042516680319073914,0.10245763331798344
73,730,0.023770934890594207,0.0071280994124786334,0.04950364886421368,0.008046501172207404,0.30508645020254704,0.25199512949115516,10.266088546129014,0.060386270780076426,0.029220472841567504,0.11698412701493882
74,740,0.0424511026032733,0.006782644087431191,0.05070875454803895,0.016571878892679054,-0.0005610761372139283,0.33724241442979946,10.59059139759924,0.11071856238280263,0.04283766316052325,0.12082853848146767
75,750,0.018760142362200725,0.003987083298234362,0.031773361266959364,-0.004155125600847132,0.209044319148577,0.20314154609742288,10.089607730833261,0.03325374555230962,0.04383598135628927,0.07940420019289937
76,760,0.036914403367129846,0.009746637730363094,0.020201087658607383,-0.012146033064823567,0.09857413105277346,0.24078980283195317,10.382494385732084,0.07769297162378547,0.030471596442802763,0.043460228478835176
77,770,0.025588668955772137,0.002695711937394374,0.019932266492945716,-0.04356283445565235,0.20962572462983436,0.1372102652053158,10.642052307188344,0.10189661825039378,0.04277606111725501,0.08168419757858787
78,780,0.02615969195290998,-0.006883216909720127,0.022327812688742687,-0.001896526824074045,0.2190829764126709,0.28308871144951736,10.39642569197313,0.08685351099489373,0.03991537974618504,0.1070879606509224
79,790,0.027039601390848367,0.014695951012126481,0.026042863171266674,0.013533463248184692,0.20851673976277132,0.519688255788839,10.197405685939348,0.08286062554716964,0.038672702144909366,0.11495246211709832
80,800,0.021061867700323013,-0.011856183791773039,0.037044664129715445,-0.017023075466785147,0.21560921491799412,0.33749728229432824,10.33297913033922,0.06376724160081995,0.022205022357453,0.1275417583541206
81,810,0.019588465652644764,-0.024650315995157733,0.025456420578524555,-0.01571381381229857,0.23962756960574094,0.3352793097364922,10.169041405788155,0.0880483844245418,0.029742715921112252,0.10619802643133866
82,820,0.0021390348878012576,0.010774330185307476,0.05532166654311971,-0.016797975358344375,0.30359793341265595,0.3899405148820343,9.884277263478083,0.061367764768357105,0.030714113267964294,0.16230663932767886
83,830,0.02566543026023589,0.0065690043720274,0.015989549053372056,-0.012684159808344034,0.08880143675002003,0.21494682920119618,10.274749788228982,0.0999066887043353,0.03746156642774486,0.05605667434568023
84,840,0.01916285734745908,-0.017035156762305097,0.006816401159509283,-0.03525542598384712,0.24952505306193506,0.24802414479865476,10.320573921060852,0.0984804891641482,0.044159693030755086,0.03690034862486248
85,850,0.023207427195385082,0.000892471209530149,0.017727876745121406,-0.018545594323914324,0.19221991046856898,0.19172837504056026,10.118216777747554,0.07681229332722414,0.033736198082587626,0.10925530520613984
86,860,0.011839276804532587,-0.027332474956014978,0.011518778071459186,-0.014156301512636867,0.28769592256340437,0.41459660966724976,9.96382593752175,0.05868027315158865,0.04502073048021786,0.11432949049985391
87,870,0.018811385083620073,-0.004591993756774652,0.02874302828033366,-0.021828816524503785,0.3469002497916089,0.14857390981197618,10.188641507660623,0.06902016228740586,0.04862200700980047,0.15420407432691852
88,880,0.013104613107231588,-0.023522535561380814,0.022758422336768114,-0.030527706634418828,0.3976889390986116,0.2007846251010831,10.276686241578078,0.10106012908260412,0.03174446429025791,0.08310920871561386
89,890,0.02507367788806919,-0.004257393931790815,0.015772838670549606,-0.018531204737444643,0.22694793160383517,0.2957801995874342,10.073511195634879,0.07965094486619698,0.03775695844836032,0.07865223088966469
90,900,0.009138042730655122,-0.02557106604352454,0.016058428739100707,-0.009026320971107213,0.09985708111033675,0.32398747913402576,10.368227816825154,0.09397372629591423,0.0469390790079928,0.09987679414196783
91,910,0.00018692461549530727,-0.01443706855001396,0.025495159881448994,-0.031934496604419334,0.20401772854771025,0.383132915734787,10.196117207139158,0.0861097083089698,0.0496969242652191,0.11954979421467572
92,920,0.014711119693747384,-0.015867828624621362,0.020988600256428604,-0.04376372259441447,0.14719186226640138,0.2937870523263966,10.327071091795949,0.08622034172227186,0.035381820055766004,0.10054328066811272
93,930,-0.0036214783926567223,-0.02055991009921192,0.017192542645579303,-0.026863315366652044,0.18788739119382203,0.13386658443320557,10.338189572189048,0.10855759780192281,0.03984899022226581,0.10878119153116071
94,940,0.006895727120977171,-0.028663304366813917,0.019814008395615278,-0.017325271409198567,0.31266608301160864,0.294903476060045,10.438259772994392,0.06423998046820006,0.037294098318731025,0.08258293001057905
95,950,0.016195718109188795,0.0014131937774084658,0.03374095553053298,-0.016459894894790467,0.29333012909001477,0.26473087968838266,10.013741234964296,0.10599349403299423,0.042782376234336866,0.08415072565085557
96,960,0.005195361236219451,-0.014898231950369776,0.020181986735150752,-0.02113877026191048,0.1989019907970788,0.4226783726938639,10.380147144895892,0.08623599426027125,0.02936290740367859,0.12619198309043714
97,970,0.029166564572242544,-0.02040857200251346,0.037717434756301,-0.026650507599436442,0.17110424577475172,0.5420269879560362,10.252148425319715,0.07328681944292809,0.03931961405276503,0.14340094526381272
98,980,0.011133301391342904,-0.020902741885875393,0.014989864570249863,-0.027692547071824322,0.043312609249695405,0.28576312410613003,10.367748195439221,0.10411683848861376,0.02493004982964881,0.09942601945438027
99,990,0.031836971887012525,-0.02971613730791228,0.011434103543579995,-0.03163380750800913,0.17259029224201441,0.21429933824368777,10.278350017833311,0.11302009088973498,0.04734918941711177,0.13472870836184936
100,1000,0.022672866992154542,0.00433898083629421,0.021453333163979217,-0.007784372510483556,0.3400821875915697,0.3536360167464421,10.397625420271387,0.08595450913854155,0.0305613238889951,0.160238472539067
101,1010,0.01704631439545146,-0.006618469462186898,0.04479239180438848,-0.035183597625900634,0.1388162004705198,0.3801373532102928,10.446377345135435,0.1011153717652001,0.034003606360485196,0.11930151195120564
102,1020,0.025491453982784247,-0.018875757163072254,0.02126497391132356,-0.032083755060469815,-0.09387224645141728,0.2323157789786187,10.03040740577096,0.1296415178848591,0.03458792729403077,0.1240377640703422
103,1030,0.006788642305599608,-0.018740946665838885,0.012922989231357051,-0.030163196095897817,0.24066947613754522,0.116985225004132,10.003036700802076,0.09133429322668507,0.038829176584931104,0.06653992593848405
104,1040,0.025798190407954953,-0.031982300114482276,0.031854695582414105,-0.016699087257310046,0.3128558021097959,0.5453036296015259,10.588175561010582,0.12652771102832688,0.049104217213010455,0.09936173778722755
105,1050,0.018534910932422773,-0.031987740100152005,0.018526894001808965,-0.014793687369516795,0.2329002718766579,0.4880940187675656,10.241974886330391,0.13125043931759822,0.043953602297898006,0.0784271872082773
106,1060,0.047904796143329736,-0.014857934501344911,0.0254721559139625,-0.006709990912979578,0.44634636296456176,0.299111284583308,10.277928581039303,0.10539148669018363,0.04601462999075383,0.25409322423645664
107,1070,0.017101050658567565,-0.019211988160193032,0.02372613988948311,-0.016947425469331694,0.4114690211694455,0.44624241782365565,10.511990495748645,0.09748813378037736,0.036007523406998386,0.15318258182282518
108,1080,0.02603262113932401,-0.0031016437656531635,0.02847877460162676,-0.00865830358963243,0.32651066108473364,0.48576174131644667,10.440844165020764,0.0711798769030757,0.05401247111492888,0.0873906306642335
109,1090,0.02276625998866391,-0.013299906964729467,0.04207623127096603,-0.013949608154652026,0.5021288434986735,0.5334883463254877,10.163057275269567,0.06087736205980677,0.027946750770876536,0.12892456876724673
110,1100,0.022165554664836995,-0.015164067017221942,0.0152638624333992,-0.024936964982342033,0.30533158482596273,0.4801900014729775,10.332411006880376,0.11820711883268714,0.06456624426444685,0.21331998184388137
111,1110,0.01193606682770773,-0.018467674672955833,0.034815193003080336,-0.04739064672931708,0.2098477313576396,0.26324696761743954,10.059637737598921,0.07934994677659543,0.05262073695432605,0.1772957381221386
112,1120,0.023075656032721804,-0.010205221796312156,0.01916546357681294,-0.01843741721481043,0.3530459481255937,0.3317116840977162,10.350668016443604,0.10730572132093877,0.03746652872052626,0.16315748726073653
113,1130,0.026654791642917435,-0.00816128961779071,0.026670802519747645,-0.022220456361145863,0.009974134976820148,0.3638565572777077,10.043269712658196,0.07737340026192521,0.04351927121094223,0.12053767243235657
114,1140,0.03149395959768391,-0.0018974081370887325,0.03574270000248904,-0.03338180242849167,0.20325412112752891,0.6115215517085225,10.48596697711531,0.08115582874547017,0.04603428381095715,0.11130766041132018
115,1150,0.012088001415181158,-0.019657047408061148,0.023352065654885405,-0.02475475874206271,0.36633611608396965,0.24549550482329963,10.26320198183604,0.11195401483721243,0.058445732464752806,0.16617706830749726
116,1160,0.014751120685231317,-0.02489360576407014,0.009486302871748526,-0.022043920067919387,0.1503522042803801,0.4901313262464225,10.043466048260091,0.09521565989023352,0.032217279640657195,0.07478459408035253
117,1170,0.027201482642449027,-0.02458071223512834,0.01476354791456945,-0.012983672297845377,0.24136569884015646,0.22119706434424846,10.150099715019849,0.09843440582342927,0.03791399001086673,0.131998865660034
118,1180,0.009919427082278932,-0.020946746408296434,0.02912945826964941,-0.018941730878627064,0.40616566963723466,0.46671437628529594,10.408050328164084,0.08815124783656926,0.05304805374288664,0.07713386277671265
119,1190,0.009310198061427768,-0.02209084480068875,0.012450262655957898,-0.032946875072029834,0.19282379989094273,0.4612882465950804,10.394500832594833,0.10841765812583155,0.031585962404464624,0.15866366256103
120,1200,0.017261826172239234,-0.02577600702280532,0.02749582372316127,-0.030689308823257343,0.27897274479961165,0.18247741837417386,10.588481699557345,0.09360533033974013,0.0418525110386043,0.13012645243334525
121,1210,0.01054076670153077,-0.04337348243184566,0.026406979967256043,-0.040053247446495965,0.31890535295327177,0.4236728051353156,10.336913866441037,0.09346457357060751,0.0599158815096509,0.1474980276984977
122,1220,-0.00010051287748528634,-0.03542783653581131,0.01676849524892207,-0.041497420373120604,0.367456096094227,0.3293989024668182,10.315380186463756,0.12525888390030276,0.050458737305707074,0.14996781119283836
123,1230,0.005015583901380088,-0.05587518655037557,0.023028654363125626,-0.035533769281486646,0.23033912968298526,0.4461067117922312,10.160876800651478,0.11220003860349595,0.041247512265806335,0.15226641159768126
124,1240,0.0044230990509104414,-0.018958536903954708,0.012192985591014154,-0.05792900986368625,-0.012374681910906737,0.39465618218369697,10.466426882638988,0.04924597647561939,0.05618584739475798,0.14558732167076313
125,1250,0.019536695403049923,-0.04761573668902603,0.022597861858840135,-0.03466775335532153,0.4224781066859811,0.2036807844415613,10.18202655941632,0.12829692546671786,0.04407518886518962,0.12171945063004559
126,1260,0.007010046945053361,-0.045018393386145314,0.008788696315535097,-0.04504019699576817,0.1809215812118306,0.48588566897327695,10.425305246187598,0.11010349713418613,0.06010028341690454,0.10213012359828112
127,1270,0.019846445174063507,-0.04013095501377967,0.006593087389965277,-0.05671915626852193,0.14154613023614043,0.3820159436806586,10.156016047756518,0.07236216726883804,0.049662947473319945,0.12513583664380099
128,1280,0.01170374686353081,-0.045398736059500955,0.0051206185681315596,-0.052521598310183035,0.37393454732938747,0.5944395661491803,10.756939518379545,0.09120414771975625,0.04034367289460757,0.10741840345304239
129,1290,0.0032674055940585837,-0.04477912262418298,0.0025714197081763354,-0.037483079157751543,0.23145049962185826,0.5212601666373595,10.12627934542343,0.09662481772119387,0.04613615686928603,0.10694985062772545
130,1300,0.0031729379850455467,-0.022206654647931038,0.013463216851076744,-0.06116196434628392,0.29098666693384645,0.38788959843557586,10.530516493713673,0.09547704748109051,0.06147168525557209,0.06795406731381208
131,1310,-0.010868730469617099,-0.0450103866328345,0.00767410775903212,-0.04607108896839948,0.3621697468436694,0.5798578943908861,10.220065308273997,0.08223576667294923,0.0319887815269994,0.14093983000507926
132,1320,-0.010457851786697532,-0.06360855940643334,0.013208834447836276,-0.04214873552447412,0.24901400538679885,0.29448435149571384,10.159793023603157,0.08754030884916822,0.03514396633507181,0.09557698901454627
133,1330,-0.014108162734034414,-0.053465937954008246,0.00512156048946756,-0.05507420998296905,0.20453361313390134,0.4725638898852083,10.204065539499636,0.1183452126534762,0.0390394596443925,0.140998141614708
134,1340,-0.00034201388162361955,-0.03809004604841265,0.014008544780509355,-0.05459177895240075,0.2992773877907185,0.37245754358141886,10.361969102794959,0.1082147668169341,0.05836786148317424,0.14349086311064788
135,1350,0.0007083384946399286,-0.04268388370166509,0.002012338783627377,-0.052656138615943135,0.20198814913897226,0.43327187662450717,10.394425678268945,0.11389811987523143,0.05464631029681304,0.09999911822710335
136,1360,0.015941770122663512,-0.03956548309733133,0.012800783889654641,-0.048833797332437937,0.25238543090064314,0.5270993849621354,10.658685464050201,0.1299593383036226,0.043682923148930956,0.14995462233239845
137,1370,-0.006587205568824329,-0.0456256175383868,-8.749320148015126e-05,-0.05134699987750084,0.1556244622410428,0.43581173744506657,10.37128022670262,0.09692223834192541,0.02261298002322048,0.14826156411913427
138,1380,0.0030641854649222956,-0.03653765810413254,-0.007619249701519969,-0.049410946926085955,0.29246387276858,0.4487916051438434,9.860890296048897,0.1224042812235252,0.042863190302896204,0.17603930531469816
139,1390,0.014176438372304557,-0.04487614364056895,0.00749412171289808,-0.0536535331258922,0.30743778380204734,0.3850312174348996,10.34311464440874,0.09931894895628363,0.03294679770442603,0.11756079932661964
140,1400,0.0007225717176328539,-0.03418580822520558,0.011962232922711369,-0.05511237213660326,0.2387343768872577,0.47648106227976117,10.305090464690318,0.10356164822125903,0.03450025633868333,0.14112915419440145
141,1410,-0.01487160982719283,-0.037647864036942855,-0.000896639489703607,-0.05937193747462586,0.09038420539571856,0.4319845458374304,10.208254615075736,0.10188931625743876,0.05228546698444665,0.12003384562699954
142,1420,0.00650982490011128,-0.04763516193515866,0.010911315801478968,-0.04564313757427521,0.26674553455575584,0.31622259557182086,10.365560136938335,0.08975734525260051,0.05344454037676181,0.10444946189053646
143,1430,-0.006045925761540888,-0.06285861775229963,-0.007617920309405394,-0.07057048452301776,0.29592523109416213,0.09962327603646799,10.153898399568343,0.07526380638173089,0.06464371212408168,0.1862118908447588
144,1440,0.0019367454641679256,-0.05139141768996652,0.0054782183811107775,-0.051919170420101225,0.28091627374729283,0.6254283322195425,10.570494238411762,0.0799962141949345,0.050904209873915564,0.21511808996812215
145,1450,-0.010603721320336209,-0.04961132484213107,0.00513152575664145,-0.049556278232337464,0.051714364563585746,0.29589028285382046,10.805113121428137,0.06781735412080794,0.041197222195438046,0.19731169800965184
146,1460,0.0025615049753653155,-0.052605894126385555,0.008155628714288567,-0.06449657076969499,0.2850754082726866,0.6475757322258567,10.497254310789584,0.12151695069246844,0.049325777463274476,0.13672910760486384
147,1470,0.026104964102059074,-0.03565196756920738,0.02772641963316813,-0.05417420626263724,0.3286081357881248,0.39679814944207203,10.257373739838483,0.10498859398369322,0.058251564933336684,0.18094451794839328
148,1480,0.002570983384483371,-0.062276257161847925,-0.005223360879510636,-0.06763736295072499,0.34663776913610944,0.40324984156565075,10.265194892241011,0.08550734952697465,0.056226644015478215,0.17109588438882825
149,1490,0.006564448495052233,-0.04867976315840902,0.00814151707084648,-0.06863673620378055,0.20578185550760572,0.4064461096880383,10.233683103831059,0.06735799854779637,0.046123500708450775,0.1613421616909187
150,1500,-0.008246407683325511,-0.0368558801786894,0.02702200904252096,-0.03393046218435,0.16261348466647355,0.46138331032809143,10.173977828283375,0.07233502746072804,0.05733282006284666,0.1835486790408843
151,1510,0.020662410700618403,-0.011327649197672894,0.03622014669498557,-0.02804241703469404,0.3066075777465573,0.5236549259189125,10.431930849962692,0.10685527200856677,0.04226397574359565,0.1603801398448902
152,1520,-0.006130072097121965,-0.026232885621009425,0.0046386725164895845,-0.040440928851954196,0.3381081675134155,0.5408165817693988,10.593805581464306,0.07704772663539798,0.039727279360811746,0.15572307184614062
153,1530,0.009814142033790182,-0.0339908714464453,-0.0021962396793716744,-0.04711376954062183,0.45023789126218094,0.4674835811445384,10.471768138071576,0.0946338721102315,0.06490253763951077,0.131098929482069
154,1540,0.003068758370020328,-0.04479785281149891,0.004855129581430093,-0.030690779577054732,0.3702132665057806,0.2858274269417147,10.181825820777016,0.06097109098805252,0.04750084769852603,0.21270089868125014
155,1550,0.02766808351070707,-0.022177618541232708,0.02027992354541045,-0.04521045378799826,0.398464309276627,0.4968627787332193,10.481759203112745,0.10004203177440313,0.061888387905093226,0.11390718820232257
156,1560,0.012108834500528375,-0.05321399538818631,0.020251108526480877,-0.0649719525952707,0.2813373043381182,0.5713414604074487,10.439520706217513,0.07493714031357479,0.01567354497532371,0.20040087497323616
157,1570,0.0025284953061755436,-0.0350193066848789,0.028905690415803036,-0.05499823439084619,0.4287039110855897,0.4603964699347995,10.253555354390695,0.09795735474809458,0.06994831642167507,0.13197753908479323
158,1580,0.03058166219290666,-0.035578872543613624,0.032901036355540106,-0.028550278917336473,0.42211831335848,0.6033658881980032,10.359769521367664,0.0834827519846775,0.04595972495490349,0.14158059564241277
159,1590,0.03203637558583197,-0.028965359235913823,0.028221896543016267,-0.03814575141975344,0.11739277170586004,0.5081818597885046,10.464107475814945,0.08684968955025821,0.044277148870453774,0.1655865830274281
160,1600,0.020836694929351664,-0.03015101596706233,0.016109382320924286,-0.04798977805108268,0.20078160443993281,0.549481236301183,10.356911908230172,0.11101167686876887,0.06025841738505991,0.16968355491054637
161,1610,0.01693475579216298,-0.04544630661752061,0.02292054832448927,-0.035160092868264325,0.29215985234995484,0.5261231715122571,10.230264202218937,0.11642556845897695,0.03569426531545456,0.1728599892393972
162,1620,0.017328516428000474,-0.032203679739240106,0.033474458948718255,-0.05667336274653201,0.4136891878011591,0.3709601387627348,10.25459493813017,0.06848736336689079,0.06285688914392698,0.18994567669905135
163,1630,0.050610432191775315,-0.010404229030853807,0.03569777998344488,-0.028885641891342538,0.34413558756117846,0.669793979006832,10.45431212625705,0.09415897592649033,0.05237693493054375,0.2099350366041604
164,1640,0.012000078861384133,-0.013481728882425301,0.022989973585075922,-0.04216709603342247,0.2989264988155833,0.4199678045420098,9.907209464490553,0.08086585369648651,0.05512711153711266,0.219274280119323
165,1650,0.0032697121219301094,-0.03992615667262768,0.008122551784837761,-0.05803460777964091,0.16826722697921354,0.65016312178869,10.271159593091815,0.07305556526471157,0.06097985752071654,0.12275718495374306
166,1660,0.009189837864212588,-0.048466109911188576,0.03611054847577228,-0.041445870411918544,0.33240924151614243,0.8208736755117606,10.23119021426518,0.12646763528999203,0.0420811550232903,0.2155663884326778
167,1670,0.020788571369390482,-0.051604998549659054,0.014679584299598805,-0.05583593158523668,0.37832237002040114,0.5503423462595546,10.519676621806951,0.08251330400508468,0.046774513537855736,0.20097986216465866
168,1680,0.009105812716664354,-0.032877470375942505,0.018442583059252532,-0.04041608535351024,0.39362983143173735,0.4294058603576623,10.169451441521554,0.10211732869991497,0.04360302388728779,0.16766669408295415
169,1690,0.005647696147831709,-0.035297050152108614,0.03951465781345441,-0.05289574361207343,0.424021129816276,0.43394724948567137,10.377010597205494,0.07374419007658173,0.0549567738130695,0.2169487059625501
170,1700,-0.0023675766678019645,-0.04988279990292948,0.019973211291125503,-0.055601463456410344,0.30877243993424697,0.5794468299673265,10.090002354980069,0.06246022900776013,0.053352606221987384,0.17194257212223688
171,1710,0.018959880948355344,-0.04196245023254469,0.008711280304398869,-0.044250640136527866,0.37631982377040685,0.39582687118777987,10.420422490078765,0.09911709906849317,0.056330856647245166,0.16034308446565773
172,1720,0.02091743905359852,-0.047242349658887024,0.030557354988016035,-0.055882698585418986,0.37976297741217935,0.42269766333117403,9.928021787622846,0.07375478216443888,0.026967222473946832,0.1709681185612956
173,1730,0.009551619876435139,-0.05586561597070945,0.013780746716733707,-0.05124096280540643,0.38322129165672664,0.4908052801259499,10.158934855414477,0.07342190864136326,0.06326341923162704,0.22717287184292967
174,1740,-0.002636189206007981,-0.05401217753696608,-0.005447487877365988,-0.06622497392210544,0.30391144466930087,0.5736163063795782,10.346268885883333,0.03817607850782503,0.05222271393057749,0.1798327608048607
175,1750,0.025313213861078234,-0.019644487691102455,0.011070757280353656,-0.036931454367048616,0.29462831683508334,0.5733189535991827,9.841801287522442,0.05835300365691044,0.03342255766714917,0.1920679645931662
176,1760,0.02961145533903046,-0.04638592024407724,0.011200488658786327,-0.058821964517124195,0.4320258224231136,0.4883733246588984,9.86666488129845,0.057609428455275814,0.06145698619016572,0.2198714277564747
177,1770,0.002804449549437105,-0.03839014187732797,0.03666823625181184,-0.07437717357341317,0.2819274548094999,0.417588286799279,10.058642667544088,0.06500694341143917,0.051925789959272835,0.134455741900974
178,1780,-0.013585428455171064,-0.055943692309904564,0.0030658316793494567,-0.06650840291847224,0.44411098698980367,0.6742445753284707,10.239618040833594,0.08781454791884014,0.05834854581225192,0.17026927362310443
179,1790,0.004278578843557837,-0.05777290711578861,0.03340564597535931,-0.05987436292872153,0.34819278702881556,0.5159143493099038,10.132045556668615,0.13429322828578752,0.046550056041973396,0.17328265971314327
180,1800,0.0005294742969756995,-0.02499449493236406,0.03623500613696005,-0.0516842102590659,0.2381560802809326,0.4348830443457559,10.336243813896541,0.0633270823162232,0.04619424943978523,0.14527904288215085
181,1810,0.000187025347141212,-0.07045363099603323,0.03465386641004774,-0.057048785760531205,0.3116884559399544,0.6285345508459462,10.16489533700731,0.0178961888833356,0.047340742654452,0.1776274667340215
182,1820,0.0015211698103586968,-0.038520453214748646,0.0007685946412245119,-0.06692567901171323,0.49897193367796133,0.5023092084231314,10.203752781804305,0.07542673625471157,0.04671578785784535,0.10628594003028875
183,1830,0.010802931165079719,-0.031210941313203813,0.016485369088869908,-0.05193860616479417,0.10039972237529993,0.8300069300476568,10.235859833777672,0.09293768965048477,0.041267572474805274,0.23591490272161117
184,1840,-0.003955163262474463,-0.046718362802097985,0.029407928031495965,-0.05834045155207357,0.4646167327108714,0.44428718704965925,10.250870090862975,0.07832817114911869,0.05348555368591075,0.21917487707064864
185,1850,0.01610734704080069,-0.0722773972739446,-0.0033334510706595506,-0.05668458363812427,0.2572936425819153,0.5991937543549536,10.113283128092512,0.05236760224074836,0.060767958243327216,0.17432397763147015
186,1860,0.018704975728946097,-0.048870750721090005,-0.0063841376643262535,-0.07090413006923431,0.03792815761938911,0.6123871093112183,9.751919063009728,0.08058914190393944,0.0669415358133563,0.14767762694258948
187,1870,0.032115839132282886,-0.03875553366943576,0.017820766199756234,-0.0446748609631009,0.5635148115665295,0.39932523400937514,10.440322192989676,0.09269615374967494,0.06969854158358638,0.19669371439022362
188,1880,0.015474292136877559,-0.036060704755921366,0.01959681664310772,-0.05852262466800329,0.3682355006369691,0.6448359691818168,10.424915880434602,0.10347879360638208,0.05054307513984094,0.17438886190661754
189,1890,0.030826244317374775,-0.03924715010203529,0.033938878827034745,-0.049742499665630616,0.25312831028390725,0.6045283982227316,10.064187967665513,0.09290901565456436,0.0615642210221726,0.15341448418051123
190,1900,0.011242329760714374,-0.03969947684468476,0.0225858108014834,-0.06170684173583248,0.27745183859742295,0.5289280937214021,10.135653831715612,0.0471025119839915,0.04683657587837397,0.20181448727605808
191,1910,0.0033872262334182657,-0.05514921534165783,0.045592284731214267,-0.07234852096020487,0.1268204192172741,0.3726670895710042,10.160730955848182,0.06940842035296198,0.03871255196336086,0.20972368406138844
192,1920,0.021408620907289937,-0.03332586039289565,0.008103053017072686,-0.049569584807545974,0.23267239220415067,0.578393440496293,10.281111569429866,0.055890124065043394,0.06260820843874607,0.13695201117072017
193,1930,0.01026843764844481,-0.03296661259633543,0.027502046507551774,-0.05581244088903611,0.5223178930786505,0.5855284621622545,10.195660369805584,0.09124304954449831,0.039651147176211696,0.18445904670044322
194,1940,-0.008096169830276907,-0.04663256017137726,0.03220223101410143,-0.04862539916172884,0.4150168989184004,0.5015117969813148,9.861981961393466,0.04395378982153475,0.04573978588515026,0.20107283428618908
195,1950,0.032162356610683035,-0.0348039937354416,0.024660396004583765,-0.042536820550287215,0.2606957877934124,0.6248322234348369,10.12813377024611,0.0725366238377606,0.053816960859811594,0.14694917319965523
196,1960,0.01762530814365629,-0.02807583874009977,0.043138649052868225,-0.021979642190863694,0.3989860161483343,0.592566687741628,9.659519214094102,0.04130581665178937,0.0489469673444017,0.1384097405157146
197,1970,0.010530488668312537,-0.05168038120295029,0.021952635639430743,-0.06994827709835039,0.4753439611614494,0.42791278492450785,9.982499749011717,0.05532726101353783,0.05602665167105117,0.18962202416053114
198,1980,0.016402313538518443,-0.03320989294279045,0.03406731079148649,-0.037389760139577795,0.259743509898834,0.5594563205417489,9.945843842424082,0.06940728528630809,0.05493030854587364,0.1180859270026346
199,1990,0.04747470331490503,-0.024262359202964785,0.04372805732267946,-0.013075878088616136,0.2490850922539703,0.3517457017185914,10.30334651907569,0.09957084425406071,0.04582577679132805,0.18665565776856344
200,2000,0.003422508256808777,-0.046917755423535885,0.02391285606989503,-0.035209653153214254,0.350146086960871,0.7601425345010083,10.180292121855247,0.07202312985092826,0.039881049198978266,0.1762719061245035
201,2010,0.04707418112188806,-0.02112239181636861,0.03344559051441795,-0.026635758858905664,0.31858697236806965,0.5851961209934669,10.231224422475485,0.0443008520593451,0.05509027193754695,0.20267256176634052
202,2020,0.030098621270026972,-0.02050446889433961,0.05787517599584471,-0.033919658801313396,0.1540075226961972,0.4535290408715048,9.81189463897596,0.0384775889618494,0.04945997922610556,0.17092626989266863
203,2030,0.033368013511783486,-0.011279923553493582,0.04412533386260948,-0.026176623059926622,0.23064089728090473,0.60897471704586,10.315639797971516,0.034337649509885215,0.03609677174634581,0.19633419496372947
204,2040,0.019334109318574988,-0.025111308579697816,0.05702195337120756,-0.024808763534472304,0.26244895550397573,0.49997830066543525,10.173403071856232,0.08069951078421499,0.045445844379024235,0.23626219551220032
205,2050,0.05773153980290305,-0.02464148862378391,0.04514096406991104,-0.028072518524232818,0.33684324879512795,0.6110240313591209,10.143529291464683,0.09799278012615234,0.040168949270098626,0.1681912387170712
206,2060,0.043589428044276325,-0.020233680638301936,0.03954406093891924,-0.030405063290670005,0.3000435471091369,0.4889471481146706,10.083583588139076,0.07247129305778988,0.0563998267462584,0.1757378587031893
207,2070,0.036637750560979815,-0.021950287233940147,0.060109668554448784,-0.03413885916752363,0.34958804748897726,0.5296362253637296,10.061275040791427,0.07511147774505758,0.04120917416857944,0.2058912957288586
208,2080,0.04714678102893561,-0.02523238351322828,0.05298405336597235,-0.0027628604978169845,0.4032308837462387,0.7387531789640585,9.767837555050784,0.062098490494560295,0.013677450214111965,0.23090571883078523
209,2090,0.04226844004829813,-0.04505695008772942,0.06272553137616303,-0.012881934330650716,0.18530742444948567,0.5423858576375471,10.18891892168517,0.06024266191401065,0.043905576048342096,0.13969456668537497
210,2100,0.06371628176992189,-0.02221659469300832,0.05411263438840028,-0.02688102728936901,0.36385151640249724,0.6240239137529033,10.018725107867235,0.03922254982552681,0.051596041905465934,0.2368618802213148
211,2110,0.05187738450580293,0.00651872482397319,0.04421041721210119,-0.026927861130472477,0.31424037294142637,0.6461226305962997,10.089098586763352,0.06215140973404867,0.049428191646863906,0.22935929350310516
212,2120,0.051609896810168636,-0.012771293897555245,0.04374856263139902,-0.03420172508343655,0.2806841861843049,0.45033831441879824,9.989521831808181,0.07198635199008363,0.053422123854052,0.21886508768055754
213,2130,0.05576558819307385,-0.016573309262411448,0.03612400498613981,-0.035378986626105745,0.10874099660511005,0.6086579990857017,9.928912187621988,0.0446632994009142,0.04906193437729508,0.21097814806600623
214,2140,0.039655355505489265,-0.001257206100616944,0.05324657839370627,-0.01582283442296065,0.33608886891318246,0.35752184733415576,9.921715973472907,0.04467496653449401,0.06209562371047618,0.18362161512655176
215,2150,0.0517065252971891,-0.0026237355395412948,0.061373323338793445,-0.024772395760325888,0.3999925907599886,0.4438194557480144,9.907739671768129,0.05405323802061335,0.046057826851297966,0.17344003866032714
216,2160,0.03665165544136238,-0.02839681746714288,0.048700314369561015,-0.026686070695861173,0.3616349639011013,0.6770163841686642,10.100183516157534,0.045244825012348056,0.042279544757225736,0.17764351289906924
217,2170,0.0494850202173319,0.00037461760745414584,0.05477771907719,0.003961030341081093,0.3881731171804091,0.46209116962975705,10.09523534400324,0.0454127895026066,0.05003118782878775,0.1711155940112045
218,2180,0.0422814534468343,-0.016295611288332595,0.06282193281437597,-0.01654858172493238,0.3050493047474127,0.595604497350876,9.842449049321948,0.04356833808493931,0.05230559894954529,0.11345908433886678
219,2190,0.053548213716432536,-0.00464418450841972,0.05733416684003457,-0.030751666547649638,0.25358288832345116,0.715408271158873,10.168271318065962,0.0094055941187355,0.05002737709623117,0.138278232151108
220,2200,0.04154807924725222,-0.008265499880684403,0.07702913989753872,-0.019977163179637172,0.35576900540669754,0.6905700108479556,9.890982133073598,0.021121123111810042,0.029911775692801738,0.19861629297704056
221,2210,0.056415625317428136,-0.013853313711001247,0.03854259026126029,-0.038407461836547044,0.24316522806582394,0.5024858004276401,10.11159273262363,0.002647592363957091,0.03503846995365576,0.1624419497304564
222,2220,0.033011392217292046,-0.018501540969241146,0.04289077599781244,-0.024373471788351746,0.15917764017145775,0.7442328902941281,10.043856591572894,0.05118186799062366,0.035619616532750996,0.20275479292468357
223,2230,0.04442078179829134,-0.013543396758055985,0.02813061548321078,-0.01312804759658033,0.2519710866093077,0.6548294907573542,10.241763779303946,0.02844751763082145,0.05451151017516484,0.21364524875547625
224,2240,0.05000782895022382,-0.013525802247675384,0.07036095286176365,-0.002250720127459395,0.11930358319269649,0.6861346436745674,10.096956018282906,0.0073787786313977075,0.0454922990001015,0.13037741423018098
225,2250,0.034233173832457484,-0.023062928919462666,0.048835191229939276,-0.04539695744185061,0.39757758234453217,0.712059384193367,9.931132232572127,0.025448340523801277,0.0353751188319965,0.1700719795385412
226,2260,0.027524315576895095,-0.013249141184389246,0.049267197810658664,-4.997083001318653e-05,0.15062017103676464,0.5679632612747202,9.752130552852226,0.03449815109573352,0.06186486809358653,0.2669020954075126
227,2270,0.03436803617614438,-0.01259270422854154,0.059132485150481896,-0.01906409431211542,0.21869643545901632,0.6476412165108849,10.182729848720436,0.025247501384338098,0.04368160425943698,0.24670507848037324
228,2280,0.04006549283507644,-0.01889346425454249,0.054147182154356384,-0.036183892484110865,0.3895889545132103,0.7216473460687803,9.530817669938232,-0.005765441977276721,0.030072524353493696,0.19790467645771948
229,2290,0.018636946278054747,-0.02152824827551972,0.035785593562934134,-0.035767587619722596,0.27437095600108036,0.645450068387306,10.18567920613365,0.02682743513507028,0.033923265992538,0.19365158774713312
230,2300,0.06333513623457569,-0.011366456726381423,0.05486910023963665,-0.008514101070380854,0.07370701440273306,0.4697971825389815,10.359474097145712,0.0324255051258493,0.036454871856930415,0.17600873907606562
231,2310,0.03274340380552201,-0.009885831204788222,0.040050366854736986,-0.03037391881885202,0.19129616129399024,0.44667385895155537,10.225987566431995,0.00830366217233342,0.02274807943545365,0.18668093768257474
232,2320,0.02416116944111075,-0.037275671677787794,0.06152751277563172,-0.031236132395303408,0.1705587592094468,0.6515897813024688,9.834982747026803,0.005143732230745438,0.060678680633226706,0.18658600736604725
233,2330,0.035312761160030084,-0.01416413985640528,0.05572601878834209,-0.003468847819611076,0.4914209175859191,0.6409029850446268,9.83986206458431,0.032906977070553664,0.03629624693517849,0.16920310997502291
234,2340,0.03705894310166825,-0.010697782912558677,0.03785078945883369,-0.014784913234297974,0.1418045714738978,0.4379193390970368,10.070233419662625,0.030444267364853367,0.030661344602993763,0.23126160834260082
235,2350,0.04494079604154298,-0.0307714195150715,0.05823299457890654,-0.03934258611233839,0.37217371057614923,0.6387372771281259,9.934531697742674,0.01682217761119915,0.0397925919134121,0.2794726051250835
236,2360,0.0169286569526051,-0.023937296720605575,0.05640561397316522,-0.040322277348838295,0.24531508178783537,0.6718595087047557,9.760826556855594,0.0496853302992613,0.039181644977677316,0.20738341483204276
237,2370,0.05020183348592808,-0.032743588982649174,0.06344524555604404,-0.01981862582966535,0.1837213945360191,0.6012783195527385,10.212283740224803,0.04163728919183314,0.042204703473732,0.20164669308230646
238,2380,0.04346845558033188,-0.005244696869442966,0.041318636007289175,-0.025442527374063002,0.13726154624240267,0.8124072399893939,10.174495495189198,0.015135255213949818,0.026270298751437042,0.21383111413794467
239,2390,0.03129013349945732,-0.022592409749642047,0.04078341038108823,-0.035606008901591525,0.2529819852129542,0.7327439957842485,9.623648988443508,-0.004964855521188281,0.03932788777710155,0.22157702212688132
240,2400,0.038382157664413524,-0.025042967414072203,0.05240588266811028,-0.04560470575842193,0.14355659578286917,0.5379732718055683,10.099222417268258,0.03419963085844689,0.045593017486229806,0.20174257168571075
241,2410,0.0595874926516908,-0.002419025832034769,0.04077644802151505,-0.0183060517134697,0.056412185863172676,0.6663185482885842,10.054060231089931,0.018207824763294658,0.04369382170899973,0.18729347585993575
242,2420,0.04086533851247428,-0.030872817850355526,0.045858350866719855,-0.019820739014885548,0.1644698293113073,0.6055563889582373,9.826224830569515,-0.002869915285885547,0.039541778279162346,0.24508845443552923
243,2430,0.030976644529518538,-0.02396118963156125,0.06707377301133892,-0.019466258836104193,0.11890657398579996,0.5076432051193948,9.90068995764439,0.015696957663364784,0.049517988332326415,0.17456380151495435
244,2440,0.024391540889403956,-0.009112975025675332,0.01870216806184133,-0.026593261326057986,0.3726931752300192,0.6217198968136427,9.82696434545467,0.03297713224203385,0.02726559647548376,0.17435187956785814
245,2450,0.04456693413728326,-0.024923340180939668,0.049830560511548425,-0.028579034063018403,0.21888812054167078,0.6558267971070872,9.612707032625579,0.006048674604762686,0.03475360659696641,0.20181915916681273
246,2460,0.029542779926813045,-0.021484972898124285,0.025832122806372877,-0.03279257330362109,0.1374390527754396,0.6356543994667474,9.889648519143316,0.005599566556141463,0.05193855385466814,0.21125007096409862
247,2470,0.036707382315445444,-0.011588518183342415,0.06726361643861162,-0.012425695538161885,0.2353213521640993,0.683243786069372,9.608458853090672,0.02523271665456088,0.04242189156069183,0.22508424482077316
248,2480,0.06463249941535137,-0.019405929636775007,0.07369222442068725,-0.010797977418173106,0.21830330220363636,0.4443261926762713,9.971096803115753,-0.022364694243389098,0.019934734810517288,0.21037828954437607
249,2490,0.0522944072323834,-0.016297789798396384,0.058229662312019564,-0.030028698528955837,0.2566897701883871,0.5753400631315978,9.729838628561737,0.028621600475855873,0.041913764726441684,0.196125753357785
250,2500,0.07318150936492103,0.007438752651548237,0.06861183089262038,-0.01939522538333574,0.019499750402791644,0.6397683797618379,9.719551905499236,0.011995089397275078,0.04347971445725991,0.21661467071993365
251,2510,0.0657733873942762,-0.003344044502329567,0.09243720931787787,-0.02044418523511987,0.2132899115544033,0.6482104160550565,9.706841396732239,-0.015369958965421244,0.03723247167825391,0.2012862383665018
252,2520,0.04414388166535335,-0.0009778613378169075,0.06696151779911419,-0.006619301069094592,0.1960585044516206,0.5327053379957947,9.484756077719338,0.008775277527922346,0.04913335992012222,0.20525717140109356
253,2530,0.05591308316115192,-0.003485592394569701,0.07561080359877631,-0.023256089271517757,0.23608557429387309,0.7010836112950677,9.909259773984296,-0.049120826028590775,0.01890886604602559,0.1875995943282673
254,2540,0.07382124699456377,-0.007276749446940817,0.07009480657413461,0.0030303772458486547,0.2356863416018342,0.6670378758884433,9.664519842303022,0.0036395168971870935,0.012420715671683326,0.20906820174688337
255,2550,0.062032488300860236,-0.013047392577598817,0.07899775701496045,-0.022431726624067977,0.12436148610203217,0.5882184045250557,9.619670431502428,-0.02554589016024575,0.02620563580690146,0.21107440361651342
256,2560,0.06569614841222922,-0.020844100207889453,0.08745855034281283,-0.014170004501532716,0.023345709227046485,0.48998266265328116,9.601296564680545,-0.018341557498057645,0.04695213429471855,0.23169135088104056
257,2570,0.05216720285341095,0.018853885041945174,0.07477005675694252,0.00451667039924554,0.21999672754715308,0.5647778603718824,9.876828753545984,-0.014247747498800605,0.03948700478250495,0.17942374643279854
258,2580,0.06478628762888305,0.0013024914221740442,0.06147330134809703,-0.018544174266785868,0.15803860712477064,0.4955675763252068,9.924019125970716,-0.009894141142723356,0.03664268491069412,0.17836354416665873
259,2590,0.06885377351793405,-0.00011517543223897152,0.07156056350926122,-0.0012046639722646819,0.19993439627737952,0.7417729918335019,10.006047238667376,-0.03381975285274507,0.03169489361395789,0.2082781628841944
260,2600,0.03433090824562007,-0.007857958800636606,0.04485640884007517,-0.032593150989235084,0.08189744309159497,0.808175546744896,9.578201857535692,0.015024092493880167,0.03408577483936432,0.18790738337438798
261,2610,0.04396016678784672,0.005409166277687623,0.04852184303211908,-0.03909526671206232,0.16484038343344778,0.634072758194879,9.937532372068112,-0.040261736291834105,0.00952503018870077,0.17426091950574427
262,2620,0.07125026205577613,-0.018469893523755467,0.0808072799092921,0.003786766177000977,0.14644535714064377,0.7107729351018512,9.914180046606896,-0.010495968494288497,0.044598988130033546,0.17596037085599672
263,2630,0.056592093242088144,0.003970102862289318,0.06463588507762044,-0.014408851062809154,0.36871757074096445,0.672724874899418,9.484926463822084,-0.02113488873661507,0.025438914073905566,0.17548601067072617
264,2640,0.06508442810417041,-0.007036915008519667,0.07436044466665605,-0.002220344090591072,0.264366705256187,0.5214796016091338,9.366231828510001,-0.02047570162085632,0.01824705550663426,0.17431665180801872
265,2650,0.06148375342803555,-0.0020903968458186027,0.06476875001388893,-0.01665232219743948,0.35781160836538695,0.6620222122787002,10.05649568054958,-0.0019974520398632796,0.01640302345455122,0.22086275959534293
266,2660,0.06540969639861212,0.004583586444045046,0.0655228482568968,-0.03270750185997327,0.13241995195070708,0.6976840346948711,9.74250518099233,-0.019806440582894377,0.0250146524685421,0.14552636226930712
267,2670,0.06548223688025193,0.005148121962926293,0.047870120190229785,-0.021768057673344388,0.08108155729067745,0.626787852003142,9.77431180271915,-0.028469109386170876,0.03946108856220131,0.23492001184719097
268,2680,0.04094986795636852,-0.0016468180749817192,0.05038296309822887,-0.03433939349364739,0.09968792146811997,0.3922463909622354,9.745048938925235,0.0221736006443152,0.026502773844971832,0.20338519617431358
269,2690,0.05134891825949361,0.0064488111629139745,0.060751035199854725,-0.01038119998661739,0.21689778145357028,0.6884648635944138,8.974363544676509,-0.014192280337348076,0.031785778640711464,0.19095824631576863
270,2700,0.046524295626885606,0.0008546593779783168,0.06657279388651284,-0.02823879044197059,0.3463231858452972,0.5053085130116641,9.767118910338356,-0.03387631005035716,0.0382031350892698,0.18725785998643538
271,2710,0.04881957343307125,0.0036635455926234926,0.06563316839021793,-0.010315344861844388,0.1909381217169263,0.4567566327693703,9.648612345388369,-0.012636242949388015,0.03182000665752254,0.13742283090875518
272,2720,0.046143002518996154,-0.01843232610645225,0.035043110950399185,-0.032729119449073744,0.2769662992531057,0.7559130474723633,9.661467547094999,-0.05205343274237864,0.03280929322276898,0.1871886068823874
273,2730,0.041682062383027955,-0.012183133258078387,0.07009331728996743,-0.028292826340342178,0.1839365941706314,0.6064981311734865,9.813749840538218,-0.02545994428814822,0.033807215677073704,0.21973903510967868
274,2740,0.05401365112712582,-0.012792810973424591,0.055735537224388836,-0.006989987565781581,-0.03307170227600745,0.6788110018876364,9.445105658865504,-0.057304559901531535,0.027828195640480186,0.20455625021021137
275,2750,0.033929351357445146,-0.023194801597730415,0.0644216261950906,-0.04685321231462118,0.18686784523516145,0.6016074197406921,9.940360589949645,-0.054316319684822104,0.016906164620997186,0.18015026260014008
276,2760,0.044443907072110315,-0.02071765208403114,0.04992510232392339,-0.033391065713242435,0.16839048702074683,0.6093783292156664,9.607506283116809,-0.05378680880650046,0.03457865879647801,0.13531280756942202
277,2770,0.04350572332043192,-0.011790118571932205,0.04445307548502293,-0.01711588077366568,-0.04975452844923786,0.8786021649026523,9.378141391748926,-0.03273914811843021,0.0313233883084222,0.26608542479113134
278,2780,0.03585557044107434,-0.01925734168980052,0.05078440692993893,-0.04305817023745087,0.11700953982099538,0.6723281818442535,9.78718479185212,-0.0816313319307328,0.026638002128902463,0.23321948596325737
279,2790,0.04180823820487656,-0.02896504862153151,0.03085221484141785,-0.04097828288905686,0.01965344215470044,0.5513444188428076,9.771733187052247,-0.0410061339334252,0.02177326070325077,0.22523614724361243
280,2800,0.04139919600202885,-0.0053810212449036466,0.0404046607004204,-0.029726616221560122,0.037388070737209705,0.48225788317974616,9.122486755568048,-0.0355625233653033,0.014211428444627586,0.21329385082025987
281,2810,0.024340341444884173,-0.030412916750421962,0.058031049117245395,-0.016056599911417,0.17707826524646508,0.6546229508679912,9.4756661483483,-0.05446682634428817,0.03592291158117243,0.20097426535462792
282,2820,0.04391180287122134,-0.01938109174703667,0.04172081129951427,-0.05124413375271861,-0.00039863462719391674,0.5195653106467233,9.941081466762812,-0.0094800181129484,0.03396385881136449,0.2275317595982191
283,2830,0.03913348230858703,-0.041737404633591234,0.057952076024913375,-0.033964136944028424,0.13063195214766318,0.6051222909775343,9.613507461099115,-0.03424051494821767,0.0201445324959734,0.15284811873831744
284,2840,0.02531209150285751,-0.03169778277937367,0.036777470265090526,-0.04488367598535034,0.19609208686600035,0.7157538464838609,9.528978926673144,-0.04027865279029377,0.02471583199723044,0.15040746924099604
285,2850,0.006739448545861101,-0.025662585024556598,0.04027808740381034,-0.03675258569877176,0.0785003975477051,0.6354635389447609,9.584698654315975,-0.003868310253689798,0.01917921948253414,0.15790729353891284
286,2860,0.039344894454302934,-0.0471580281534944,0.04712683794525161,-0.051845897310207036,0.017303752721565396,0.7382444065620795,9.506125947028815,-0.037522179748405,0.013055303176221366,0.20127282813310596
287,2870,0.03340044083733783,-0.012830748461748117,0.02520857345556871,-0.04642156502537019,0.20684877568064286,0.6338117721284988,9.505507054148323,-0.02040978418710799,0.009820127510695087,0.13790192026418296
288,2880,0.04071415208003804,-0.023740461513062014,0.02816661795633925,-0.030607979257853097,0.18408114332767989,0.34323858960805065,9.140465965524799,-0.045485506132212916,0.01384632172650509,0.1956182106032301
289,2890,0.028278450784589775,-0.01409597073139869,0.03928288466897782,-0.041784058498957846,0.03796640532521166,0.7514500181583299,9.575546253584854,-0.04482260200241762,0.026698236536475062,0.1767258930770116
290,2900,0.019907328221389103,-0.041834266318374225,0.035455367900533025,-0.03129058987564041,0.17068131683309878,0.6184507606441617,9.453086202985846,-0.055288967566772915,0.01342704260846584,0.17033079954523903
291,2910,0.006300606979193459,-0.046060701940214686,0.018106456169951494,-0.04306809945731434,0.08686197519426436,0.32936212938217907,9.62998885046918,-0.028833960591026244,0.03509729947542699,0.2013405414098241
292,2920,0.04169681062202042,-0.01371872679008854,0.03186018296134041,-0.06148033634980918,0.19920471456970598,0.4380550572101575,9.680883142996421,-0.03949787637770328,0.0034982190226769162,0.12958029199341523
293,2930,0.050964309619822915,-0.03395263306025248,0.027846792477665527,-0.048250066971245925,0.3199375936965131,0.5344439348690989,9.338066438601466,-0.036940395050700355,0.016165420454487094,0.10914605443767049
294,2940,0.026626814274547852,-0.02554466457934863,0.04731240921370268,-0.029004597232100634,-0.03825970258001164,0.7464637426048918,9.001161771534477,-0.026727008062629728,0.01948282115521846,0.12403421391326308
295,2950,0.034082865360512735,-0.04472098223602017,0.06316592976110194,-0.04627611146442963,0.18272706116474674,0.8155036233329137,9.746822941197449,-0.047073955741106226,0.01382680435890113,0.24221118708555178
296,2960,0.027068039068530596,-0.02367199239526919,0.03949466162311794,-0.03095349214311527,-0.012461139585422679,0.6697208476493199,9.69373362613583,-0.04727674261136658,0.01777442199858466,0.14111089732180773
297,2970,0.03956645436615486,-0.03001304106310153,0.03314944444896522,-0.05029981312754184,0.30365814686323844,0.5477261007504716,9.269150906736657,-0.022958541776613904,0.014096921243949317,0.1603000799904996
298,2980,0.021108078254199508,-0.032240034738268704,0.0372893587108595,-0.03121001759087952,0.1253461825423508,0.6836173617930921,9.341025717186815,-0.06533750937162996,0.0184909203060874,0.19284998306861556
299,2990,0.039371773906251475,-0.048839489149825444,0.0065770472768665045,-0.044022579674522305,-0.042370776633676596,0.847136932369244,9.529868849523652,-0.03415430614439861,0.030031948817018376,0.2002921695897006
300,3000,0.017823713274345173,-0.025614934767992995,0.02136558848599281,-0.051082560198834406,0.2779518363975339,0.4867403054892985,9.245076451118933,-0.06632143406352504,0.0076075385600392585,0.1695939796633396
301,3010,0.023794926658632826,-0.038600744401176126,0.016310970392703798,-0.06388505318750276,0.031582128076253345,0.6390257411048174,9.127827085592154,-0.055904050249262434,0.019668370744910485,0.16468391729721973
302,3020,0.017597990752593898,-0.03520003139912116,0.03625446382967826,-0.038370070716952004,0.004348438336867891,0.6637598407306501,9.22973310705755,-0.09036048742409829,0.020202256188475206,0.18373560566009126
303,3030,0.05018058002532409,-0.03724550767707459,0.04291548524640203,-0.016121537143214206,0.19085176335612072,0.356929696932374,9.309713110203708,-0.09279229066262953,0.01775732039192871,0.16893821097612055
304,3040,0.03287313955724868,-0.031580954793390036,0.04595738056672829,-0.041426518907207686,0.1296434771541545,0.30822282640461224,9.20256149744398,-0.05820489221787777,-0.006053562364227844,0.22917980993418388
305,3050,0.03213608678142483,-0.013322447163771883,0.04967972379156514,-0.016279066542730706,0.1054502537749262,0.5376147609720231,9.588015819172464,-0.04912696065276521,-0.005177102279759508,0.18986575670822753
306,3060,0.029725132244981488,-0.0035614497560648925,0.013809277361989279,-0.02475338618799508,0.16630306878840923,0.6028803126211489,9.416433384304778,-0.045650807246859715,0.023487377033001522,0.22516756345899067
307,3070,0.017603393541945185,-0.02556681289507829,0.017541035559128518,-0.019775669616910494,0.061654224189521406,0.492404548052221,9.262215293653384,-0.0761590296942501,-0.007682433160454577,0.1545723247485605
308,3080,0.01813167763377508,-0.024027457451136144,0.0389334957546486,-0.02448024539860838,0.15128769777601186,0.6165091066589622,9.728142329889197,-0.07248125733027168,0.02193499926569715,0.24218495716145358
309,3090,0.0326579985802803,-0.026645489628803098,0.04446316929244696,-0.05648790376987913,-0.09582716454248161,0.6632149298436371,9.37179150010953,-0.06527192485802513,0.012725416593160923,0.22950120804729265
310,3100,0.023302687407221113,-0.022329732673597613,0.040929878929940613,-0.04055241245182245,0.13054807916998534,0.4582994675844002,9.577306610003294,-0.01926336187618872,0.02568370272392856,0.23658830840465955
311,3110,0.028426122991463746,-0.02190547881580663,0.025271806559097307,-0.033761203174572665,0.0973256718634585,0.29223735341376667,9.572340205753353,-0.08141053371462828,0.008705479809945594,0.16342376382957113
312,3120,0.031051909911272553,-0.029192228869448864,0.05925207763421992,-0.0218468782345518,0.06587988400959652,0.6558152000068872,9.147653757587442,-0.046241059464824555,0.020167792726198647,0.14078139839966072
313,3130,0.03775932259210769,-0.010859835242359717,0.032988608878679465,-0.021234475800014273,0.01416076427978459,0.5717744431714655,9.317847073610546,-0.06274823535481487,-0.004480300698064583,0.20828931852034735
314,3140,0.01977975197790197,-0.032337185156768096,0.025965373503430797,-0.041317236391083596,0.06424926624759786,0.6646578760310957,9.6997845013789,-0.08095383188999186,0.008194318219845986,0.18549704029367203
315,3150,0.021050834898954835,-0.03589401752129663,0.024708931204628123,-0.023232943461827076,0.296773826622317,0.7894554553861634,9.61200391159173,-0.07465297837196372,0.007221255459723834,0.19203257685649006
316,3160,0.0307786086625304,-0.01603609967798398,0.04916912260995673,-0.02730899651430678,0.052810947432030006,0.5987581594790173,9.435736037748304,-0.06623807884303258,0.01976853047879343,0.1560737263615607
317,3170,0.010250325220035118,-0.04391002956740145,0.01780786930186888,-0.04671670199361846,0.09960743031579408,0.47017303790086157,9.744371161193422,-0.05517576872358809,0.0065538057617180985,0.20287388398774456
318,3180,0.04426306021002822,-0.019463847822550246,0.04186764039855683,-0.024305022377190476,0.13505764992933056,0.6791007257217451,9.547417760705384,-0.07675329479480991,0.01962905776985934,0.15912957403143904
319,3190,0.003005978324395763,-0.04583628224866502,0.02895514188286263,-0.05343171274834069,-0.034388847879036254,0.49367957319889916,9.305833616783172,-0.10052381850438312,0.014415128765407972,0.14385998746248893
320,3200,0.00914046728993949,-0.030940929184928995,0.047773943114351944,-0.033031471779730516,-0.08487627706202583,0.4321935383005603,9.280577749867538,-0.07217526736036915,-0.003350501293804222,0.14820173529396505
321,3210,0.018139616983696233,-0.018833864051423857,0.038679532553037625,-0.04338516091489216,0.10107793149806371,0.5409917693640176,9.21628800849639,-0.07219806821032113,0.027377895287836462,0.1841758532953245
322,3220,0.01937767826607463,-0.024955769971610607,0.054020627520442226,-0.03107602735878765,0.11853840532588213,0.6285468628261006,9.502588588456916,-0.09416430683135087,0.01943176594678556,0.16009117907281264
323,3230,0.014148671753181028,-0.056282526567986046,0.013051481018395473,-0.03873032179276727,-0.12932686027564796,0.586348236905481,9.135067488678049,-0.1033638418781251,-0.010255177951111012,0.15555585359071653
324,3240,0.0239822549102058,-0.05064327562814629,0.018991676337505883,-0.04406235198461113,0.09853188272057005,0.5418666343551277,9.070941151437848,-0.08631749275850337,-0.003924334844166437,0.22553238314116802
325,3250,-0.005527933409379574,-0.03133584507812546,0.02211570741609449,-0.051446544573120895,0.12026114657625842,0.4632805179312737,9.18882576680827,-0.08751981606851605,0.007119056330562517,0.16190566986735813
326,3260,0.0057047852033509875,-0.0447607520567119,0.012086889613387278,-0.04634884921451267,0.07236306738096583,0.4180572187138348,9.516088013310048,-0.08304482701868678,0.00543166723681711,0.19148597641190637
327,3270,-0.0029393423535556884,-0.039495350246202154,0.004771468053239563,-0.05795840425853238,-0.1254950227695755,0.49818707500957105,9.542819536075914,-0.07395397091142496,0.0014708002085892051,0.22299741687548535
328,3280,0.010583262467910758,-0.028210278229935576,0.013411661409403178,-0.04239446054397021,0.09553109948102821,0.4224581831695428,9.11262024653724,-0.09402585506525175,0.02123516369037969,0.12023818406173963
329,3290,0.016267983252204077,-0.035275818777728896,0.002118398872580231,-0.052253503022955804,0.07916557767748467,0.5305313789179986,9.551592658339924,-0.07042771481353328,0.014709432369030289,0.1949706530738917
330,3300,0.000709101239865644,-0.04386648948528646,0.030220932749462026,-0.05656976968439902,-0.07989795522419804,0.5291536990196991,9.638206840239183,-0.04557517236990211,0.015610069704234978,0.1327231398164111
331,3310,-0.0005029367943893198,-0.061047528593400555,-0.006603568984869952,-0.0605979083355706,-0.12779316891094866,0.6695582635350851,9.539997391764645,-0.06634146272007974,0.015463904196910221,0.14140639412062742
332,3320,0.013491345625923414,-0.0418069559814519,0.0047257925738419995,-0.03487846309044478,-0.08268544273682647,0.552463978756151,9.276308603270015,-0.10358883566574284,-0.007920265475415595,0.13756223739645906
333,3330,-0.007414081672015671,-0.06757603639834127,0.004112317219484143,-0.05625907096582938,0.030619388698648605,0.4195536863832651,9.020931716122101,-0.07388866568104148,0.02091452789258686,0.13136814963027554
334,3340,-0.005219039181679653,-0.05164767811700777,0.020617740187007804,-0.06176802680589779,-0.21080865870152965,0.34781392369904646,9.732085231011721,-0.09688214315115963,-0.015191081560512559,0.1456643485168961
335,3350,-5.886576481700136e-07,-0.05291756209600397,0.015085745683735958,-0.05537425595161495,0.15341269557762954,0.7347134247273263,9.087665346988869,-0.05988676886326394,-0.009013649619432676,0.08842520145937573
336,3360,-0.017911208623556586,-0.05359120137816157,-0.012382846856858577,-0.06026123445623201,0.02167242521776179,0.45899940094574954,9.274009794829473,-0.11275926595244475,-0.011563258413518844,0.20257807510434217
337,3370,0.00048777493355606693,-0.047195141941722085,0.010747530562193321,-0.055738499971535876,0.002832248276246778,0.5500079168812555,9.624411430410552,-0.06447069311847242,-0.0032130095508892875,0.18402078078509937
338,3380,0.011299623650411029,-0.027622489190793072,0.024417937719996063,-0.05023179743507868,0.19472544749899862,0.5479319704287172,9.419321398544433,-0.09238775686099479,0.013202745206883105,0.17570339488701217
339,3390,0.004118211575552984,-0.03887851306922877,0.004969335951785507,-0.06616041640792075,0.01881306303116742,0.38389282988994766,9.700893811761688,-0.038585758564499466,0.008196781565511044,0.18998503936813488
340,3400,0.007607990563861309,-0.06331528101762046,0.016892086346733073,-0.05574203645417696,0.0695319366290185,0.5389752934193517,9.726695994295817,-0.07133881343570603,0.021308451148571585,0.1282960825301227
341,3410,0.0014741661465665704,-0.05761356101196341,-0.0033888017030907873,-0.06393331262052415,-0.13442466315084972,0.5148462525592934,9.389326205832814,-0.07939656135481422,-0.0025816170990322273,0.1327695459891519
342,3420,-0.0007025421473916349,-0.05127276902310869,-0.00028159813269319246,-0.06819388166696293,-0.13131173071383886,0.49378753739993236,9.531893176705276,-0.10764484259049635,-0.0101092812587555,0.15933525071742086
343,3430,0.006879548429762802,-0.06149277232369017,0.021907969852936894,-0.061906783791785325,-0.09418095442798693,0.43852876860626266,9.161557449434625,-0.11581466376023206,-0.0030540572675368735,0.1938590862879743
344,3440,-0.022377799701191806,-0.04513099322717356,0.014589382240600822,-0.0721909550737498,0.03558352859702426,0.36747687134377327,9.371965582275683,-0.06970694909815964,-0.01020307106359045,0.19250102290757554
345,3450,0.004604852879166754,-0.05221017660719221,0.024028014693995153,-0.03661267556321364,-0.24321406347048566,0.44384559908041094,9.417719102165279,-0.07694284646771649,0.0010712187186767133,0.24783595243224274
346,3460,-0.0022224167994400433,-0.06523421209455213,-0.0030540697602118513,-0.05257951725184771,-0.09301998397649955,0.2221736881227616,9.503821305176084,-0.09740322836670624,0.00012523364662028486,0.16917092827362024
347,3470,0.01758164176403893,-0.05104614438216306,0.015602974146130905,-0.04321335371137427,0.1443503436216883,0.44544361816121913,9.577440396849545,-0.15102204369676017,-0.020831129990629214,0.16498616011647288
348,3480,0.0018420836478308875,-0.05730936968090374,0.006526814274800782,-0.05741143977447668,-0.10822362504199048,0.44885024114495614,9.288284112901952,-0.0924120733305774,-0.012546746519239482,0.15447749505950284
349,3490,-0.0032803651039571805,-0.038628604104429434,-0.002737158693695476,-0.0610387799621922,-0.052195139031576444,0.3953171037993207,9.751911926430354,-0.12900238853276838,-0.01234761180302912,0.16278373685581402
350,3500,0.020537621937578805,-0.023843915782265884,0.008448110828616524,-0.04256652659785752,-0.040952881732233146,0.3879664212131348,9.196423564342885,-0.12146973507405154,-0.018758242834228493,0.18858707234422387
351,3510,0.008525321550880541,-0.04869236694830968,0.019372239903284356,-0.06921611402033676,0.007808939466355969,0.42123750819636113,9.284493754118403,-0.08028879812716047,-0.021330967750701164,0.18027997766253454
352,3520,-0.006232813466109908,-0.04687525578149792,-0.0017897099483981625,-0.03254617019590885,-0.06272574328578244,0.4540686175628308,9.426122317874055,-0.09407771297269542,-0.009880363631013097,0.2062094722602256
353,3530,0.003226045243154142,-0.027509423000093333,0.02829912015203717,-0.05073522658183627,0.03413019281420025,0.6027847583576088,9.436243617311415,-0.12227571666755974,-0.013277668994973728,0.215290936972074
354,3540,0.017610574220184895,-0.03760813664881452,0.008919476126630708,-0.031999370582706334,-0.03169564874523772,0.5007459718433273,9.468902012172837,-0.08738877534266322,-0.012960387332055099,0.10960145461361537
355,3550,0.007876346686451879,-0.04744689133001466,0.02760516605814991,-0.04360146227870018,-0.08134815734293976,0.3509481875533387,9.217424925243092,-0.11592345605929158,-0.022565020279219937,0.15982258652468873
356,3560,0.0030796805373987397,-0.036706103653436455,0.013214951013765155,-0.0298671336937944,-0.05106793224345493,0.5012211035724435,9.605506049698223,-0.09829200117962655,-0.012084668677532832,0.1197104852995224
357,3570,0.01745114978364835,-0.05109265264351254,0.0172439510750745,-0.05251851261825613,-0.02084850919819487,0.43155942584723417,9.087329095720568,-0.08421580683718968,-0.00830926763168581,0.09802114280176624
358,3580,0.0242464195497503,-0.025527917166676642,0.016596529660616286,-0.035421650479124045,-0.1721130464160092,0.47436546695659954,9.933830114190496,-0.10933869620722163,-0.01499872661566079,0.22232117299042167
359,3590,0.016997398114296895,-0.0089476951014767,0.007817766357816109,-0.040808903131451656,-0.02452659320708446,0.4253554015574253,9.1315427370327,-0.11052535940535277,-0.014192499873272651,0.1415014837584645
360,3600,0.014157816222868738,-0.04711356958599288,0.007657507946907255,-0.04256903028097728,0.025257388291466523,0.5361700585176964,9.396885020415262,-0.10552624386080148,-0.016293226848780117,0.11573002581309202
361,3610,0.020319067354788937,-0.025449931924404458,0.017586702552277726,-0.04163005667267905,-0.15493795633110413,0.34130418071894825,9.248915003576538,-0.06529772136048646,-0.023321118692006072,0.17047847112337167
362,3620,0.018830099962980927,-0.01518278152297201,0.0327768011339276,-0.045304771083135756,-0.05036865966581994,0.5158476719962494,9.478605120132707,-0.06702497758401199,-0.012928778966496947,0.16021048300622864
363,3630,0.01626348000226914,-0.0085796956209666,0.022739357610134545,-0.0331537796718088,-0.12118398456275423,0.2546471956391146,9.38809893510495,-0.08431743014279364,-0.017686034374301142,0.07633511861717238
364,3640,0.017263010384978354,-0.03377603293734122,0.012267261609470602,-0.021971575201915623,-0.19150727268311277,0.4532651548210856,9.465794335859245,-0.1364342131382726,-0.0243515155722514,0.12860478030599348
365,3650,0.022561575455934842,-0.02530985260272267,0.01226401515222869,-0.05542877525863114,-0.1538403229568367,0.3042111483966396,9.26709610853159,-0.10046984609802793,-0.004276954517955097,0.21933776572873
366,3660,0.02171433666299629,-0.026619940862629837,0.02404418378368162,-0.04147342909158052,-0.10375730138127776,0.3852644272711791,9.176831548832551,-0.10673702814020167,-0.014451327965986974,0.14552586684576477
367,3670,0.008017459904922298,-0.025523253805758758,0.038989420257968505,-0.008767379916620834,-0.2031473763326781,0.6628173191776471,9.135196365115144,-0.08158490610073013,-0.017867403942705685,0.13667827795990423
368,3680,0.004736502939564541,-0.020295008582915136,0.015938654429355742,-0.005482363255387122,-0.22251798996972882,0.4222560030474103,9.497422866805831,-0.08170061576800854,-0.0029291712189678625,0.06060243477399323
369,3690,0.007300627094388574,-0.02959771029464294,-0.0065207030228004,-0.04442665224880091,-0.07224397946172749,0.561821787616095,9.20687535002456,-0.11081676364859304,-0.013850244016890126,0.12880576099222427
370,3700,0.018454725197130897,-0.01723134850911737,0.013221584616556108,-0.048232007323636625,0.028213210269600913,0.39387745824453185,8.984113631780806,-0.08520907924341464,-0.02567572825833335,0.1921461056960371
371,3710,0.01228426760078324,-0.0038417454323095845,0.03729109719773858,-0.010808947952173822,-0.18473913336716724,0.3356435556150017,9.426366095890604,-0.09925984895613753,-0.009311163711291745,0.09125527501300226
372,3720,0.010973305577585019,-0.03912996004404245,0.02761125007702813,-0.039005862507952765,-0.2110582315523677,0.5430346576263759,9.384085306837362,-0.06341091846005283,-0.016388322977184996,0.12780586660156532
373,3730,0.001262344149351913,-0.03499808204326851,0.009866564839919196,-0.054826605281139355,-0.09093046837716436,0.4845390909982411,9.36102440072178,-0.07761487911110967,-0.012967577694867161,0.10175727449076431
374,3740,0.017985709302845345,-0.021930701233680117,0.0350713810507927,-0.03086714441750341,-0.3400543984833661,0.42610452158423917,9.180906416583982,-0.08975250400649742,-0.01474670334225826,0.14824041794784146
375,3750,0.007197379534919674,-0.03408558050898243,0.014564331989953005,-0.040496873634671644,-0.053019677258638084,0.33270780089025576,9.473455599606392,-0.09571280001159731,-0.02044347284202555,0.20354965540039133
376,3760,0.020971387466116376,-0.03362494922186137,0.011234725499631526,-0.04170509772677039,-0.04251758526576323,0.23758749566285386,9.11024969623066,-0.09427538099356059,-0.010778947816503572,0.14888246506679265
377,3770,0.009160794060107186,-0.036736494079511184,0.008638923944366831,-0.04782422416802336,-0.14138468625426226,0.5291355168307654,9.188226732798688,-0.09791591803534117,-0.01709680217042429,0.17071729787272616
378,3780,-0.00792336905389016,-0.026851386320427707,9.153384208947235e-06,-0.057571771269029584,0.08541834672832153,0.261058067516514,9.363544083344586,-0.11791398149227574,-0.021089955208718637,0.06609852850071024
379,3790,0.03813203130871301,-0.021916113779737907,0.019585806010636825,-0.03852346467289166,-0.26553855611640276,0.6214887567969883,9.743335174126145,-0.10139960538339875,-0.009338196724513526,0.10065185296097241
380,3800,0.012909699789362794,-0.0437521399781623,0.019044795334961534,-0.04950418467164886,-0.15204131835286305,0.5666480037714426,9.211577390150284,-0.11705711284676373,-0.02145144171471129,0.12357213205350291
381,3810,-0.004221894257516413,-0.03968430249513469,0.017449152504044364,-0.04656991263142383,-0.06785303873685229,0.5121804186498303,9.2183187895687,-0.10538520753844802,-0.010457465135410975,0.05697844665382665
382,3820,-0.003190556559021918,-0.024596439109761344,0.013733775745674475,-0.05285204444091437,-0.045809376739212204,0.2712347775461826,9.249588635231584,-0.0966575629601396,-0.025875896854910697,0.12649065880350024
383,3830,-0.004133605511122388,-0.031251983604942114,0.026966623468311274,-0.04456665619589076,-0.1799042911484491,0.38968887416995446,9.134534352105849,-0.0948032527096516,-0.011417338392297686,0.11636778382823755
384,3840,0.018117609675303986,-0.025758652706699234,0.003606289570593741,-0.05433438187698686,-0.07218441561250014,0.36291497797043093,9.527597519376867,-0.08991764774467656,-0.025688656028971094,0.09559907937077644
385,3850,0.015399241974028187,-0.04690288065602753,0.017763455941567016,-0.052853732557363337,-0.14933715419909013,0.5735360858561539,9.304299048801182,-0.08224164079553276,-0.028422048968861552,0.18771091142459692
386,3860,0.003170499958491749,-0.04422954676195552,0.01690498184866977,-0.04814216686460918,-0.09122178692267269,0.4939250862383044,9.3324830149246,-0.1411297558428316,-0.03653420362967489,0.09501036958495769
387,3870,0.018136171687047665,-0.028056181069522568,-0.002955052954262535,-0.039710308550664784,-0.054973965731198005,0.49539041759215957,9.459603996176634,-0.06865212192720074,-0.02101258464734034,0.13919587891270074
388,3880,0.018021359082213927,-0.0282483595202623,0.011178779918914219,-0.046465835848009396,-0.2127084655284871,0.5371398851666632,9.65770613326954,-0.0924511829645705,-0.017899455614676582,0.057304941523520586
389,3890,0.00469749784967364,-0.03778965922447594,0.017429077873906556,-0.03111239623389421,-0.09668847214098077,0.38377479472765014,9.193050303891471,-0.07358064981151287,-0.027043144242338505,0.10458455042563884
390,3900,-0.012432215595957669,-0.05221674755734825,0.022016830250350675,-0.040578755318795755,-0.1040418850630385,0.5034389047050646,8.809859886085192,-0.1147058805366763,-0.044023757491416474,0.16802628190695726
391,3910,0.00513723616623765,-0.021387375770061324,0.0022454714223378823,-0.03087479354093084,-0.11901800347436724,0.4174421169282939,9.054781624553236,-0.08785870380943611,-0.021239079639802694,0.21025036522049492
392,3920,0.0006471200673684938,-0.020770519214956137,0.0001398356692531577,-0.037558708304011826,-0.15012064645973064,0.34789130791154366,9.267669860292541,-0.09472108560179807,0.0015887626783679734,0.11495574308115725
393,3930,0.034524507868969136,-0.02851818352962267,0.01831813550275728,-0.02733597673654565,-0.06866824350835538,0.3706566096237458,9.317126571343078,-0.11075393443326882,-0.0165299797808245,0.11098202555936898
394,3940,0.0005702070250894909,-0.021965226153131703,0.024164772871584063,-0.024025794551551502,-0.08025656625646908,0.3983730783799699,9.219136789237298,-0.07733573669540972,-0.03936633383646117,0.034484890522715965
395,3950,0.0030288136010370287,-0.0357428355938909,0.01670607433656517,-0.030793568942775622,-0.15625732524134003,0.36747190266551055,9.471539242134858,-0.11053953815659212,-0.03839990370901845,0.11499422553577916
396,3960,0.021271606996811056,-0.030947489774565268,0.01970019568765568,-0.01653772137271569,-0.2671787238152819,0.47183325453921104,8.922916720998339,-0.10402022189727543,-0.04903134898809153,0.09468136105507849
397,3970,0.01258706850514594,-0.03130677621906659,0.03583830477868803,-0.04645275043007048,-0.19743744191199974,0.2647942089148121,9.445818188793663,-0.10083554782837746,-0.04328759829261508,0.060128177106058854
398,3980,0.028632147170305433,-0.02764586060411753,0.028650573343422553,-0.02896431632240687,-0.06839606384866795,0.11531267998321937,9.482725048242036,-0.10619389374537168,-0.041794546772421226,0.10887584932225779
399,3990,0.031492888153311124,-0.01948171574424608,0.02627563702031866,-0.006921879473820282,-0.04820788739633808,0.4501318600925578,9.328540730301567,-0.091183443641765,-0.03160485481693386,0.1996806047008583
400,4000,0.025455534106984187,-0.009347701156321124,0.02726047974387258,-0.022318546197565327,-0.2206567855508671,0.5338474274944468,9.746651284888408,-0.08798893879287176,-0.03563045052613625,0.12494844961809508
401,4010,0.01537583157431989,-0.027937769307829752,0.04278536663768792,-0.015722901658175945,-0.15789987465589672,0.4532730127991492,9.367117047309458,-0.05297638807086941,-0.03299147893508588,0.15748076832404306
402,4020,0.02784707713508993,-0.012532634033104907,0.031755622736803824,-0.00396187403286798,-0.20430956794425958,0.22088931967948122,9.420783703975667,-0.11085091884021617,-0.03959486496555593,0.07904359576962201
403,4030,0.02783236481038527,-0.01803913987322082,0.022874111460177534,-0.019076166988566453,-0.11356377213468055,0.24095774614763543,9.198702000856244,-0.07908033021076419,-0.03193324409573853,0.0915962730747466
404,4040,0.01793846583318097,-0.0031364307105650104,0.05115888555965811,-0.005293919230944747,-0.268542106448337,0.18950642605356258,9.49956317748918,-0.0797198395900707,-0.032359359177972974,0.14571742684401232
405,4050,0.02320786258676849,-0.012385066229729645,0.02778311415845059,-0.01822196216250413,-0.18665058441041543,0.47051316504945406,9.129393381241519,-0.09295205403266008,-0.036970894368883185,0.16957133858991894
406,4060,0.017646866971204225,-0.013700039832837754,0.053354377953956804,-0.020998923578901374,-0.14663286573830217,0.37157461241947914,9.779417490427901,-0.10973803721706347,-0.022186282470833568,0.1384755993276734
407,4070,0.026521465258826652,-0.0047036734104914015,0.011244969206335196,-0.008154976404043345,-0.16567012377034535,0.291179828549279,9.09267697766903,-0.09224624683211503,-0.03357512698415093,0.08882394024916591
408,4080,0.04269380946816763,-0.019535249418932192,0.015196998523060636,-0.003066819455137833,-0.2098456516591779,0.4719338520501086,9.214051522424846,-0.053098480371414875,-0.02041167379139477,0.1420064293319516
409,4090,0.02325981826281417,-0.004313103852142242,0.04850928944107096,-0.01754354731994686,-0.27989787490719636,0.2547355066903095,9.348375774220283,-0.1139275348630069,-0.03138805937852326,0.10706632188497857
410,4100,0.03642982767165316,-0.004494313125264868,0.05171831059115633,0.007352177266531463,0.04286586327617062,0.31369939836783417,9.37457602776192,-0.07480055953826159,-0.02971603210865362,0.017066032923373973
411,4110,0.02365395013846447,0.006226366408640739,0.030559767441437513,-0.01705686994565159,-0.0813824751952141,0.2902998357414373,9.33118950273647,-0.08738566115176573,-0.04308577383560539,0.16749868964678621
412,4120,0.03582600594680961,-0.018828578934625455,0.04635581012499854,-0.01026188891514562,-0.15873789760822454,0.29886450703377776,9.568395038724747,-0.07907787938642477,-0.03430271393261816,0.08433599791700581
413,4130,0.030328061665786776,-0.0043965189188066925,0.04402322150026312,0.009269683309710442,-0.36484051337610457,0.08986790049285538,9.402837728134548,-0.08825449914840801,-0.015899518703140644,0.15466201169522123
414,4140,0.02086324552836523,-0.0016602499789068249,0.044658046977503585,-0.001616057432344416,-0.11101802953250836,0.3834182444243823,9.432199733786701,-0.07862375276865056,-0.0536216508821184,0.11338892221731631
415,4150,0.05540022216495614,0.03355342909905266,0.04050314327386667,0.008710685793886471,-0.333623432496205,0.27344022821654645,9.3046691736799,-0.08921000475652752,-0.04034453034615275,0.13437883425680908
416,4160,0.03013243546338047,-0.0008598362211151046,0.03776326545420867,-0.009891320420639131,-0.19791832601756218,0.22704207858454814,9.428735514854418,-0.08288464754839307,-0.02526154669546676,0.07197955942129548
417,4170,0.033697518258914955,0.020716127007226505,0.05956906302306887,0.006959771407715837,-0.12088680521215867,0.32250571854560467,9.332149369542334,-0.081225849527898,-0.02658134043152658,0.07672442628237122
418,4180,0.028534290514524642,0.003589463290760934,0.028146371672729202,0.021765657006990367,-0.009702809465283957,0.29746110396590664,9.454196463987781,-0.10887463693194324,-0.02891233133031268,0.07023116924343739
419,4190,0.029186314999272316,0.013485365392741044,0.03781972184588925,-0.0018897119715907632,-0.3549545705791725,0.4716211974106693,9.498447579490016,-0.10095466736995982,-0.034464456112946,0.07241716047228243
420,4200,0.026905067595966614,-0.00921836909174806,0.023647530554878393,-0.00137761532276946,-0.3755700655861288,0.3617231548708796,9.487776675802232,-0.07047580152886956,-0.024324181808100687,0.05691090736677419
421,4210,0.021160055280038344,-0.005756400096210009,0.020032706044843137,0.0011157755048150485,-0.1909883841090907,0.1513358440405592,9.161998479208396,-0.0906391961392515,-0.040805210550255454,0.08341500731436861
422,4220,0.031646119061188645,-0.01866233528803099,0.03882178578832942,0.009732935875341821,-0.3701010236500867,0.2100883962354527,9.303317808555141,-0.11758925355143009,-0.021957474362662717,0.12794117967795382
423,4230,0.029842133815068724,-0.0010352441962794678,0.033540610127886915,0.003477110551540305,-0.2836556237086588,0.24261792624133505,9.248365831991212,-0.08927304378870718,-0.042878820020318696,0.00800242445939457
424,4240,0.026143601966544184,-0.00116997397813615,0.036401705712795655,-0.0007020053880788368,-0.20840316961820052,0.1505506300486016,9.360536522097865,-0.10814168289600565,-0.039085718087399676,0.0903371002875807
425,4250,0.040751677004802686,0.005248953049383596,0.025206517071835088,-0.01300730470733084,-0.20822965103783003,0.2723638050733413,9.228551767419447,-0.10443685845703816,-0.050525588189018554,0.05337218011753322
426,4260,0.011670973984029734,0.008696918369210313,0.015901782438432165,-0.01085481285042307,-0.3355346718982247,0.24302059025165615,9.644808822686436,-0.07631370382421516,-0.04992822883598666,0.0362462195345883
427,4270,0.01799666928163117,0.023906212371578694,0.05645716784883474,0.006399516228476623,-0.21386663239104364,0.32235905332102477,9.441047819285197,-0.10422415885309846,-0.037529675486253515,0.05805226362909823
428,4280,0.020586141692776262,-0.007767234692089474,0.006064847510599441,0.010174497808978158,-0.3118549330202852,0.18930292144076602,9.55585634008773,-0.08663451354901927,-0.03585900581680671,0.013669836338510094
429,4290,0.03517207396294476,-0.002270218845701792,0.04143360942710844,-0.00030889949869968014,-0.13711658881716038,0.2071537301638576,9.77078708231258,-0.05859991057983758,-0.02192568472825769,0.06195547213879894
430,4300,0.052601252501996945,0.0007025491156580831,0.028199358256436706,-0.006633347819889138,-0.24246463338975274,0.15069147114334827,9.726678351933977,-0.07420564517519253,-0.024364504296623422,0.07037636323045782
431,4310,0.027136292994216805,-0.019203282787397177,0.02547565144085775,-0.010872397240384156,-0.31477264567844565,0.157557149371713,9.512082746666069,-0.09538998706348661,-0.028926872324947388,0.014082224623348225
432,4320,0.029391989711434093,-0.001638034052065676,0.02421336997741865,0.0011961881966444116,-0.16050110156769398,0.36329217532408353,9.197346996499169,-0.086389827030899,-0.026894984138344215,0.0570346036607219
433,4330,0.0063433328977397715,-0.005283421775331709,0.035780992389665,-0.020454861795023906,-0.21632274862343678,0.23873061794453804,9.320588927428545,-0.05198246048262137,-0.049826220668716045,0.07818857563325052
434,4340,0.018521044681937496,-0.0037252741462587167,0.014207881644515488,-0.025702653413204733,-0.18800258412847004,0.3046982842880379,9.571724314117933,-0.05556895695086881,-0.05624891974568138,0.0753709121946198
435,4350,0.0025880559672754773,-0.016011433794669683,0.008994813538326277,-0.006847765106728394,-0.26360794554993483,0.2938400123270346,9.583090507402543,-0.08310683581124105,-0.034245689046468214,0.11721152249886595
436,4360,0.014294006823018256,0.000991015391373043,0.0014234950972880555,-0.025012387931053377,-0.25813533434856617,0.44856227465335313,9.391564161159513,-0.06908491533943974,-0.037030766917162394,0.060427374926993696
437,4370,0.016588016769488175,-0.0004920354979750761,0.022201833021598026,-0.015429110221050932,-0.25964950872983833,0.34387337679855307,9.353206265340722,-0.060758853431926274,-0.018202524736813486,0.10643809658834923
438,4380,0.007912758794398409,-0.015469404934560662,0.020230978468254338,-0.02379166785469047,-0.18279258492798878,0.25474055701437864,9.512682476056648,-0.043245642381252745,-0.027538866085891497,0.07934513734018367
439,4390,0.028511795327894423,0.0004605352570996391,0.03265963401576589,0.011216491906741479,-0.3370179457159607,0.35733715347906375,9.423622608990952,-0.0658416807949045,-0.04057119496929091,0.007385741371709318
440,4400,0.019880174296910653,-0.011962691208135298,0.012885603392639165,-0.007545148322941089,-0.029042936484605097,0.288912291473065,9.347591122946435,-0.04504364855377968,-0.046590574403785126,0.04494115277609559
441,4410,0.023794308786696892,0.007181479803503926,0.010491661978631408,0.013481898171827617,-0.3342441521416592,0.07746475790314374,9.601816115428859,-0.07245351424535501,-0.04419991510020437,0.09431945424848255
442,4420,0.010506451349670532,0.007018877049352926,0.02295008096277032,0.007658215224464291,-0.37019822684523446,0.27526176867460644,9.355047207585336,-0.055348375767516125,-0.02861632578153682,0.05903995779073413
443,4430,0.03355675030686104,0.029791182249498907,0.051723448887903735,0.01982089703895821,-0.27037319472560145,0.051488157896804644,9.144865141139482,-0.06364680552759876,-0.049552169395236406,0.13471831229701872
444,4440,0.022587217488999087,-0.004012635984389959,0.017809503563673657,-2.3622487067129737e-05,-0.21455171508355086,0.4074764921176327,9.721399198501262,-0.07076682073419979,-0.04761341935970112,0.025547788607566273
445,4450,0.033247422991547405,-0.0045139752883130695,0.05868096158422769,0.015924906339509902,-0.3279984603933356,0.2885399416326844,9.737697310283123,-0.049279495256580846,-0.04893265805746355,0.08367996725459609
446,4460,0.02360625308195155,0.02219342108896248,0.02513450958972765,-0.024377792578075527,-0.19889377643874578,0.07210552263516033,9.65097116406549,-0.05023692495495499,-0.04655384411157212,0.08623045715209599
447,4470,0.013618637379800593,-0.0011391885044004756,0.014033763250351494,-0.004670027195218536,-0.2771741363770153,0.2605031314949861,9.432550601812107,-0.09467452486261024,-0.02219330113453857,0.10715046061515503
448,4480,0.01845074599189469,0.007065156360665608,0.0355860608727708,0.013082235913733736,-0.15499261420392862,0.27305318002670076,9.559585108542729,-0.05042471056077168,-0.04266943343231868,0.12941639273334007
449,4490,0.028530373279164238,0.0011540171431236729,0.02173506001958809,0.010262245809628048,-0.3652720324280287,-0.07037232212678134,9.391472092520257,-0.042358934075738805,-0.03816036397416476,0.04189672003720942
450,4500,0.021087067597295284,0.009889548129007202,0.03841335775096652,4.75946363715507e-05,-0.2851077934637996,0.2818034143984987,9.292152867431493,-0.03687411493121856,-0.03217731574576028,0.01638468938077577
451,4510,0.03902112201727206,0.00896489842987782,0.04300054138278197,0.007043866522053954,-0.3958264057304819,0.2091371671894917,9.499472842834841,-0.07325882597203165,-0.04515056065853497,0.0792261116784698
452,4520,0.021490753183489066,0.01694250176674973,0.02511944036285374,0.005317715217385949,-0.48800606639021105,0.11749215453761808,9.336964995184477,-0.07005632847061836,-0.03167562585532254,0.06291062437357836
453,4530,0.02918694601946291,0.018122738559071636,0.03524589978809371,0.0029806286426787365,-0.06268481988721225,0.3668814706064174,9.413451467342744,-0.009947323302958833,-0.02390109020779536,0.019134791576401758
454,4540,0.027800161211849597,0.0013272988825649042,0.014487573141637214,0.0062271341494543695,-0.23275064233576515,0.17421580683750545,9.712226168959566,-0.07357546170856653,-0.05398439524925061,0.022036089969714494
455,4550,0.02174123244030699,0.011759899793274905,0.028887677590826017,0.011710010167576869,-0.3970236837360774,-0.033139008010642956,9.148217457359676,-0.04730766051225182,-0.03703830794026138,0.09911671546065717
456,4560,0.028399729361396533,0.016037880875495174,0.030037513296456916,0.00358854460695988,-0.2973366383596706,0.17699004946106053,9.404750612914274,-0.053211137513297,-0.034879692338685056,0.11781063055561741
457,4570,0.053228829287750266,0.0035299416649501574,0.036440038604139136,0.03356347215922405,-0.23423052407879677,0.08085635112617715,9.696604680924832,-0.05260853402495575,-0.04185640010077381,0.05837850229263302
458,4580,0.057807855681812695,0.04942888314139815,0.05364493706260558,0.02331833403282777,-0.29080057681133203,0.11147333194049253,9.699146402501352,-0.06647937339763246,-0.056011064970653696,0.03186500316115489
459,4590,0.034269625198909574,0.026396203055751147,0.02133319215057622,0.017522224046806617,-0.11176050203734658,0.20078576788995975,9.689966461839555,-0.020635163211717152,-0.044414229619653765,0.08363141065703496
460,4600,0.02889479961562588,0.02079488422131809,0.0341582676434355,0.029925292403128606,-0.204815302518582,0.29017603055701596,9.705171269888233,-0.027938081934248186,-0.05587916013196182,0.028481697684330325
461,4610,0.031608441977426356,0.01400202584161524,0.0430938206628104,0.030229353775721227,-0.45888251289168513,0.3424206147568226,8.93024611905729,-0.036794112499008096,-0.03366489113415544,0.08916977713063155
462,4620,0.03951805639135636,0.017509651615384474,0.031348345123490315,0.031055415330310837,-0.1378674899769365,0.22505035841856214,9.277913647659068,-0.031059538488409436,-0.05596739784016686,0.06180916194711795
463,4630,0.03419859747833397,0.0325618627747428,0.053371254471645306,-0.005979601466511646,-0.41212185084256137,0.06970397967275681,9.821145310106552,-0.04458881950487838,-0.03567236043712417,0.011122590704308873
464,4640,0.03748259771526729,0.0381613218118509,0.03322903042308349,0.023732900554054935,-0.22704128851936012,0.18836929442730357,9.905393015884268,-0.035806672700908815,-0.061121071199084005,0.06369734332456527
465,4650,0.05916975061294409,0.014020036959597651,0.034215702932407284,0.03857040247200674,-0.19446311516446246,0.10084218051402481,9.555309029192419,-0.06919685025835481,-0.031159409076182473,0.11153883666451288
466,4660,0.030352479236563815,0.019963487780789838,0.022432635745875052,0.009320648604029057,-0.362610185984931,-0.03951392631008498,9.452062017426435,-0.04668843889406812,-0.06328809319991613,0.07332204922812471
467,4670,0.047032670095372625,0.035327733149322665,0.03388404126904793,0.02002029377369304,-0.22117927788355796,0.011234186999509732,9.246993572460624,-0.016198729521501337,-0.03208686705305388,0.024017862829715717
468,4680,0.04295442584819327,0.017671519192441663,0.04685633245547184,0.02518052399520424,-0.26969915935226013,0.07017127942005737,9.862074051471433,-0.0031803410016283257,-0.060147046978476205,0.13411045172961303
469,4690,0.00430970436324387,0.0006129385914472769,0.013127517468528287,0.014743816523783879,-0.3139759528407675,0.10874039227239021,9.585942872727806,-0.0460191316601308,-0.04054623824368208,0.05821465246502966
470,4700,0.043639088216046645,0.024588094801654005,0.0381491635633915,0.014632157312032934,-0.15313001610226182,0.23570451534062217,9.626767712298058,-0.0445441328054934,-0.050377074790472626,0.0658947372047421
471,4710,0.033629464430463774,0.024574927161873233,0.024324840943673855,0.018543154598170297,-0.41203956457155155,0.16044120314567742,9.90410933314114,-0.04172243148458486,-0.044236045581128626,0.03595733015849745
472,4720,0.011838666168650671,0.008715088523758706,0.011567074104907923,-0.0028490011774957857,-0.1353508291901271,0.03961373313283576,9.810935191785113,-0.03677346932188608,-0.0396800677989525,0.05353241025764439
473,4730,0.02856089201574374,0.017702193271720363,0.02076186871595442,0.008234571044767235,-0.2903712123753943,0.20134475051425896,10.220810466284114,-0.0637440085245946,-0.050676598456556615,0.008006133376309283
474,4740,0.0172566526974241,-3.123793367613113e-05,0.02550257334675308,0.012480973747710088,-0.26519065068102654,0.18039321594565685,9.808110521817262,-0.014104594150588224,-0.06020045947092218,1.356499494769084e-05
475,4750,0.015233557365010999,0.0011854972047612208,0.028989702202179567,-0.0002584855385114075,-0.3621386305399582,0.021434270068182024,9.515625202518532,-0.02347463570530243,-0.04944307218398067,0.07565337815991884
476,4760,0.013917912310049102,0.014137881121000138,0.02751912671980205,-0.010828293435322324,-0.3342774887311097,0.04885542563660844,9.637072157691811,-0.020484970432339836,-0.06880414214622801,0.00970689341085032
477,4770,0.010912334675818756,-0.00016985986118544377,0.015026418639282117,0.008043165106557606,-0.08948858338899951,0.06492123131582175,9.957808473352946,-0.029358205849685223,-0.05614748813172075,0.03469912897276293
478,4780,0.02140077577607779,0.00536423646229351,0.031123205051991846,-0.008358112775922983,-0.45358747428718277,0.15968388607486536,9.471129806083068,-0.007971067931835465,-0.048450158284305996,0.08008366075193236
479,4790,0.004195121624829016,0.022285050987629996,-0.001763477770276758,0.005225800713297842,-0.19319717214246135,0.0055955755014460646,9.703765315173696,-0.03587485340411681,-0.048922907441895376,0.030615816731477473
480,4800,0.014923103563873674,0.009436984529603905,0.0008988201091679005,-0.006962855474781804,-0.33311241288208254,-0.0012721574759876563,9.887139887799437,-0.029077882112734838,-0.050775939311146524,0.0016948111040300084
481,4810,0.005924177037746467,0.0034957190837032748,0.014691140943732132,0.00739691477058268,-0.23378545578592197,0.028475610430446066,9.962597100190369,-0.004844336957531194,-0.05063845875984363,-0.013165142835985745
482,4820,0.006612899519004509,0.0038599871756067033,0.03270850756980635,-0.015590582298090183,-0.19489104480799513,-0.10993722037999874,9.557676339269024,0.016474728980084643,-0.05481742929083653,-0.04267850801590613
483,4830,0.023898312451979715,-0.00992663810161471,-0.01117844491831732,-0.01640942044329807,-0.25715653671523064,0.16050411037779883,9.719491178217414,-0.04570668324749532,-0.044576201391018554,0.007708253341962604
484,4840,0.0038241009053612673,-0.003522238244838614,0.003991392103950941,0.00428319969895688,-0.45562273636948114,0.01690585303382648,9.93607252743258,-0.03210532447352067,-0.042372659574703396,-0.014369050887945194
485,4850,0.019735047275744707,-0.012034779655961619,-0.00027427671714539987,-0.0039468718232390475,-0.4407539946722212,-0.06772722494340522,9.779849852870457,-0.013389696741053513,-0.06628464450535909,0.054899456431116794
486,4860,0.006358737742472177,0.014099689250375608,0.005946792640600815,0.0017150792194288492,-0.24224006730845493,0.059361307874850736,9.582352840972119,-0.028090203856940617,-0.06139832117030025,0.005688215064758341
487,4870,0.004608185029729896,-0.012685237817762762,0.0023947682249986974,-0.0006197854904578955,-0.40549303243429663,0.010867144460021719,9.614108493684057,-0.02732866185571702,-0.05807544667706205,0.08178439550386789
488,4880,0.01020298803605716,-0.0004967720200692742,0.024849113368222507,0.009488575630344685,-0.20596794174691174,-0.24678338989590407,9.851828837909077,-0.01728942373472871,-0.05895273639228424,0.023209156402389457
489,4890,0.004668505833647474,-0.0032187548118334094,0.009860329023170257,0.00141385417031726,-0.2242878732449473,0.2610470636225502,9.614338883257753,-0.030269348164985194,-0.039353855956906374,0.05635369853265858
490,4900,-0.009618017688431794,-0.005018630886175779,-0.015285238382714117,-0.01383951051578292,-0.2473547039060569,0.22308513357730483,9.927040086678645,-0.02983499544292822,-0.053130354330074216,0.06426246545529317
491,4910,0.004107879456480382,-0.004620057262327079,0.0015212129792144995,0.005012381124314413,-0.32553388218578616,0.034480918839355806,9.703883715563746,0.0013491770848452298,-0.04248251841674799,0.017007117623814526
492,4920,0.0032468716949473108,0.004908804924957579,0.012618071357304018,-0.004793963611682517,-0.30857021743226065,0.011378603110244733,9.698255308307637,-0.03520418380236893,-0.040143563369029814,-0.014906932820869391
493,4930,0.007969515652193625,0.006101711833327464,-0.00010391346153805665,-0.002123248392659799,-0.2528253877917764,0.00877955378203653,9.808709537928147,-0.03284406433167544,-0.04349130012092543,0.08405550264000466
494,4940,0.009944867176854822,-0.016641950065737363,-0.01010385643074123,0.002590719980044706,-0.43548030183337905,0.030657501526408337,9.526282442530805,0.011781253686188965,-0.026214465960816544,0.0528902560317936
495,4950,-0.013060875620771937,-0.013581003635006528,-0.02305146899834882,0.0012800758685627652,-0.19367889041374137,0.07979913676240916,9.620563979786047,-0.004524272513895311,-0.0672096867089507,0.013941544590486164
496,4960,0.007409987042038098,-0.0038751350365519334,0.0060470121735687315,0.007407817934727686,-0.40152774712405787,0.058813959019386845,9.713181942238439,-0.002723645334164876,-0.03806447059872653,-0.016209659074115174
497,4970,0.0037916249650923254,0.012714123424380112,-0.018655498064109707,-0.00396245991297601,-0.20636110083304693,0.10561871811581582,9.720359618622915,-0.0233112434661152,-0.0592152579860136,-0.007941809256969794
498,4980,-2.3223674531542768e-05,-0.0038197864345558127,-0.0031760127045534748,-0.01537228926644444,-0.3118572292078953,0.2436648482023291,9.935814939956463,-0.03609662900071651,-0.04727009439277973,0.0063422452537845835
499,4990,0.006327293246062769,-0.00960466978671478,-0.01730539957022764,0.001434446664060393,-0.19971557867124823,0.11908645494923191,9.958468944241591,-0.03754035782601896,-0.05812974895603043,0.05634118177505801
500,5000,-0.024806318948939525,0.006695874064874059,0.014494789174874387,0.019638469799445876,-0.22597458140043578,0.16430890338942913,9.695385430877042,-0.038647066129696754,-0.05566643328878693,0.026302966973395535
501,5010,-0.00020510981572289394,0.0002886827315587053,-0.008889275323061436,-0.004233253626425586,-0.12892257720397618,-0.11501191928242208,10.02027643445596,0.01201693379003421,-0.05101131313562581,0.019843000034868184
502,5020,-0.011831280702997268,-0.013884993805643547,-0.00201901389087238,-0.0023439624994606918,-0.2774984446455028,-0.056115491838813016,9.912169097707446,-0.021798034438245004,-0.05366259305047212,-0.013203048726950474
503,5030,-0.0033581537157883045,0.01816200509709081,0.0025907640923284398,0.006763583343682782,-0.12762534745262885,-0.2316612775367164,10.055481138677816,-0.01396361216979257,-0.055803381376125914,-0.04340801341262634
504,5040,-0.0054355124410923935,-0.009936240169087687,-0.0012981828181286325,0.02590499672086367,-0.5068713427562703,0.20445955220898931,9.762151826036847,0.011134471887054024,-0.04982284403646346,-0.002700643111972939
505,5050,0.0037345796543557836,-0.008230805675637609,5.921380114966784e-05,-0.01627035791104273,-0.4131410582088899,0.09446773999673326,9.901589727452349,0.00606693825081063,-0.05567534737471923,-0.031667931365317155
506,5060,-0.005262001611251301,0.003368863592514431,0.004221052217657378,-0.0042192217748421995,-0.2565565367660811,-0.0811419172394658,9.600035676885184,0.022120237904279416,-0.044584680447805454,-0.07557052845435441
507,5070,0.006743445236020504,-0.005709197843982959,0.004510444737672403,-0.005191053879818998,-0.27551719085777915,-0.020215364917700315,10.069095548206155,0.01594443835781448,-0.03324960902575179,-0.0024588368038354993
508,5080,0.022401178953547398,0.024434190839788678,0.0005411429169508669,0.021070244645698583,-0.41063333629245247,-0.13254130526734675,9.937119979736556,-0.0005564166715229923,-0.056483470257113456,-0.029587505420214245
509,5090,-0.006610524399683099,0.016364200743203564,0.013900196687483062,0.01743248592382798,-0.3007568245937989,0.024629492118617022,9.94152667357183,-0.001811610702781706,-0.04663189367080249,0.008750755372075453
510,5100,0.010355384699337913,0.009217902050587763,0.0281982901806321,0.010880998453132503,-0.2519382120549261,-0.07191399499635583,9.989478191692816,0.054819649925944715,-0.03855681446527763,0.017350427115357708
511,5110,0.007532979652044646,0.013677266670186755,0.00165271957128127,0.025781737546308182,-0.24667208335971935,-0.03428615882451049,9.613267508859346,0.031192899787843075,-0.045775124944580865,-0.02734604705068211
512,5120,0.012677263517137967,0.011231382766236572,0.016132991165764207,0.003522547363745395,-0.21265414397831195,0.0662890456160689,9.75177255733482,0.0024021420378802505,-0.05286971548149831,-0.06728085388495637
513,5130,0.007478161963933449,-0.003653865468154459,0.0018833580722424853,0.002858667648708963,-0.29511111924461486,0.003587657229680438,9.859946336371799,0.005191002675063146,-0.05317505763126509,-0.014668793482249138
514,5140,-0.004790319150379214,0.001798759987588989,-0.0033487540716921494,0.010160831939633541,-0.20930137172476976,-0.016169627851033957,9.536017674969068,0.020906495762547182,-0.05555398688894208,-0.021971352894509123
515,5150,-0.003177528504239344,0.001126443123933626,-0.004862665917130315,0.020833671302020983,-0.2768298257167901,0.16109400709487234,10.003792174616938,0.020278408620682524,-0.04876826370632914,-0.02878365643730338
516,5160,0.006021703577670219,0.002196455021766429,0.01938991647635994,0.00473299883990037,-0.3344963167249065,0.015016965297385068,10.075068380498251,0.007995505730832022,-0.04092128389696998,-0.040342828674599096
517,5170,-0.004773702332185188,0.019366629133142122,-0.010600739039173617,-0.0129170719191369,-0.14730150876633172,-0.052170582484021,9.81691493202238,0.045395877371601875,-0.052158136014094914,0.08267856227643425
518,5180,-0.006018828300189649,0.0028554535697278,-0.008521846956454075,0.01832379623136021,-0.2994752798696029,-0.06664646144819542,9.80746564021639,0.002623428547988395,-0.03888842785129563,-0.0512569004837453
519,5190,-0.006655785413829275,-0.003931601226563835,-0.00019775734564280757,-0.005895973852386432,-0.3755407961436009,0.02569776092554811,10.206065176045582,0.06800499937235219,-0.05793817161594922,-0.03655857028232871
520,5200,-0.011522282942619718,0.00782997855553278,0.003259604094530307,0.013479485498226588,-0.16108679577396387,-0.06588230992714214,9.798714065374723,0.05697961137931361,-0.04456942808268913,-0.020789874299758208
521,5210,0.01036083623060664,-0.022255702929354824,-0.012645398115230787,0.0051199726538060115,-0.1683671592027668,0.12787043042169263,10.051350133408745,0.02273957045685331,-0.05376056776334184,-0.05114780582582958
522,5220,-0.024135806207095167,0.000866862288308002,-0.014781568892881073,-0.019859795472588024,-0.26373394529718325,-0.06670032014735823,10.066227213296054,0.03751387795713337,-0.04957950103661954,-0.07203646750270941
523,5230,-0.019547190762095303,-0.010872267820774063,-0.02905984024308795,-0.003381431765229899,-0.28044936168496004,-0.13637845778377608,10.11839083517059,0.01953358388288988,-0.04684638770415614,0.03634006163789336
524,5240,-0.015070547297673435,-0.026437299288632744,-0.014869721141872077,-0.021158075865796044,-0.403194719807047,-0.1740624787549186,9.981641424541952,0.018273230042930473,-0.05011229405895527,0.006553019715499282
525,5250,-0.02821247048547052,-0.01213891717084007,-0.016184347792941298,-0.013889505027901459,-0.549043310308811,-0.21882817374868405,10.166465194527534,-0.008255498281649502,-0.047743023008168135,-0.0003405489593172363
526,5260,-0.0021769917728001673,-0.005043700892324301,-0.0352846876843461,-0.003980488282076195,-0.16247669611922294,0.04713321768456218,10.26493173673788,0.022862616788215252,-0.07001267478340795,-0.07435810929266219
527,5270,-0.022043434801520836,-0.021280397800300128,-0.02173400287678442,-0.013567794539927961,-0.2764495065655188,-0.2924528993876782,10.35934226400125,0.0198057791473844,-0.056586361037821296,-0.0008624808230239721
528,5280,-0.003511467238423287,-0.0028379184324795405,-0.010018014961158637,0.005631333767097355,-0.21894073114069862,-0.12336553550538315,9.62297049246274,0.014692957847116075,-0.04880863542044034,-0.04642328068931759
529,5290,-0.015905314190374685,-0.029083428083616206,-0.04120761970825615,-0.01396092194971655,-0.2594201002229341,0.030081459423880713,10.138847463721579,0.028899623688738378,-0.038909267817487415,-0.03561647409453046
530,5300,-0.03455258995056053,-0.005649933184877186,-0.02692509018250168,-0.01881548256913652,-0.40950233836957217,-0.1501243503728939,9.775253373934447,0.05083752505227097,-0.04973113624612381,-0.07707503287263712
531,5310,-0.032607388250444305,-0.010605606323360668,-0.02399770395692773,-0.019858246874047317,-0.1388597396102094,0.04945822366539527,9.873010110793667,0.049872013263751985,-0.041084517537571176,-0.086593987330585
532,5320,-0.03913579034259765,-0.023742436033276026,-0.0064301059758357,-0.031412456182368105,-0.37629667886674806,-0.08264698961890382,10.227151903633589,-0.00012992808309628123,-0.049543019111050766,-0.10500977616211216
533,5330,-0.022882951993387732,-0.015138938219929763,-0.02244589734974997,-0.021651338187034765,-0.36913843437445715,-0.0871553921722207,10.131843831116509,0.03837219307289413,-0.05456358061178331,-0.026655289634690365
534,5340,-0.044765985148423185,-0.018623537469850106,-0.04328162852776615,-0.031718405928503994,-0.18391882938480425,-0.07753753305213311,9.743770704306208,0.02063673354970563,-0.0518389401647623,-0.08853269993287739
535,5350,-0.05507122257913951,-0.023123379808125906,-0.040279502557259365,-0.006111389790951827,-0.29298612115909334,-0.2651192003255583,9.80375547045952,0.029828259153337096,-0.05226951888223877,-0.06874365469762354
536,5360,-0.038305759319028805,-0.033515295586054525,-0.03365789247569117,-0.022688053096101852,-0.2642961761764625,-0.19176221030417262,10.080503037140785,0.06012585256733573,-0.057243359176287895,-0.005738421555398215
537,5370,-0.03975493861994033,-0.0266916528361146,-0.03542081490779381,-0.011622579996013233,-0.2732425840433023,-0.24946850996321338,9.866221186518443,0.06024996091348239,-0.06506180396022042,-0.08773437012352492
538,5380,-0.041881512603402414,-0.011839660809228296,-0.02994636815466344,-0.019719048312003034,-0.35848165021233014,0.043838488707264096,9.842564502286665,0.0278901214042873,-0.029212381289282198,-0.054615843081638187
539,5390,-0.07325838235486837,-0.02376020669447666,-0.06709936075430946,-0.02082133456956225,-0.25853385335539736,-0.2215870695976159,9.855998491687505,0.03226942400158435,-0.048789537495487124,-0.02869372315161719
540,5400,-0.043720955631858,-0.016102331142322325,-0.037926920643914765,-0.009342117939557531,-0.16083305155476446,-0.12431304692678585,10.080811349202767,0.048763818463596155,-0.04676806254455201,-0.06837729820361237
541,5410,-0.044763401468669424,-0.01603344433496835,-0.022168653403116065,-0.04554846365962928,-0.3751194123813419,-0.3741843321175541,9.850506208282939,0.07549343747104813,-0.07200768958446804,-0.10315838813302737
542,5420,-0.052826785997682764,-0.031773311990534944,-0.03493836870423803,-0.02120260492418872,-0.46306163680996276,-0.015568240545040524,10.076450913057434,0.02983972211669717,-0.025931447666532846,-0.13920623032986498
543,5430,-0.03670742243967566,-0.008303152653824822,-0.0435793807870093,-0.02022869284047064,-0.2932673750133761,-0.11872849509963382,9.680497654418334,0.02170087474770222,-0.045530854691903336,-0.03141630022484747
544,5440,-0.018071802228328562,-0.013603788008318895,-0.05684482651465317,-0.020268202912135404,-0.06716449262093815,0.15131864323629,10.175267950063516,0.034712306864949416,-0.017995207823877837,-0.07103296955530677
545,5450,-0.05525758250149551,-0.01683254742643657,-0.053293636776387404,-0.02927448573230864,-0.266408689260101,0.0019728214188457047,9.81853495856674,0.08182955477278632,-0.029752450350503164,-0.07957951013224997
546,5460,-0.035790898242694116,-0.022485533394355862,-0.039940425518383296,-0.02620157081480957,-0.34095623225145255,-0.33849380038960325,9.751715176739857,0.06685590496349318,-0.03286632066766179,-0.021167503733807855
547,5470,-0.04638451181444998,-0.03697329054680519,-0.03631917103058989,-0.039704338049521,-0.0623911781689252,-0.17628748929042531,9.961164578131966,0.05869608816506947,-0.048040429393243905,-0.08659857147037532
548,5480,-0.045104100387595956,-0.02126606884187839,-0.036286021983011174,-0.02120825709031872,-0.2731346824551365,-0.16070150349260376,10.131729782654629,0.03422729241841094,-0.04454197512085432,-0.04502879245684033
549,5490,-0.02462451120535562,-0.0205781207673413,-0.03162301778130752,0.0018491718129583189,-0.29429052434747804,-0.17355648888324482,10.420252657957537,0.041976458323669426,-0.03727569559377625,-0.04602319217581268
550,5500,-0.035817584704509416,-0.026423556239556688,-0.029183860686616107,-0.01074844829589637,-0.15440290968714482,-0.2019949302227446,10.136034791889944,0.03332259180994115,-0.05213065849796167,-0.057413092114415254
551,5510,-0.029197234638928548,-0.003469972927243125,-0.028058165682260543,0.011910480489768524,-0.37572771615358896,-0.1417632478974393,9.805540653218303,0.054382171150173894,-0.05101589936019561,-0.0196154052682007
552,5520,-0.0015088607426898722,-0.017689848209278387,-0.0214781688033161,-0.026868711353611335,-0.37033955593907303,-0.2639755426728705,10.120581957648735,0.08395869098171466,-0.04904005638244625,-0.0636284664328856
553,5530,-0.034206170416667965,-0.019903644438445542,-0.049009004598307475,0.00551392339256852,-0.3152151191033982,-0.2845883669792944,10.277079393230855,0.06961674534542688,-0.041901043651344644,-0.16040202630026265
554,5540,-0.03283072475712773,0.006583467479402066,-0.01527594635480527,-0.007935927056558212,-0.19489028287585164,-0.11609107655185161,10.021052889552736,0.095437065681012,-0.04812115997822016,-0.034660992044985704
555,5550,-0.013372787191688298,-0.005792707554487862,-0.03446279094872577,-0.0012103262160628953,-0.4071654667878538,-0.1676430916759964,10.192957257742687,0.07372261551621499,-0.053289331206879426,-0.089513645778288
556,5560,-0.057559669334116575,-0.0017617290488419514,-0.03882599995022277,-0.012140022294107,-0.1742310378358494,-0.217712546831155,9.722799625205504,0.08635174629945418,-0.06234411125533637,-0.08615630357398912
557,5570,-0.007352439784825901,0.014457332094818516,-0.017446919887306234,0.007979611533532676,-0.2232749938555046,-0.2168660763814219,10.143876608789316,0.06563434454966949,-0.045061204671090274,-0.08387465399840517
558,5580,-0.01786253532276334,-0.00023605132307827651,-0.0243912341894542,0.014091723612753357,-0.03873762599305716,-0.07838917817443869,9.981274242212494,0.05455767908424845,-0.050438582985891586,-0.11357157759771674
559,5590,-0.016012825693208138,-0.014141496646413098,-0.02614011936565481,0.008887813065780632,-0.34013189280975414,-0.2934542950898782,10.484798521384937,0.07190442309061179,-0.036276118806779174,-0.09639363798329147
560,5600,-0.01626692021037405,-0.001812474540829537,-0.016717928764177784,0.013940827743571901,-0.2703359287342225,-0.37147692145379463,10.280968004825265,0.056226077770948575,-0.0483801275165279,-0.07338626251350198
