index, elapse_time, susp_fl, susp_fr, susp_rl, susp_rr, acc_x, acc_y, acc_z, rot_x, rot_y, rot_z
0,582,38.06564,46.49628,52.16781,27.38682,-0.40941,2.27808,9.80665,0.00746,0.07847,0.03331
1,729,38.11674,46.49628,52.16781,27.38682,-0.40462,2.27808,9.78031,0.0064,0.07981,0.03171
2,876,38.11674,46.54738,52.16781,27.43792,-0.43096,2.28766,9.73722,0.00919,0.07674,0.03158
3,1023,38.11674,46.49628,52.16781,27.38682,-0.41779,2.2721,9.73004,0.01119,0.07847,0.03118
4,1171,38.11674,46.49628,52.16781,27.43792,-0.39863,2.28646,9.67976,0.00759,0.081,0.03291
5,1323,38.11674,46.49628,52.16781,27.38682,-0.37589,2.26731,9.78031,0.00879,0.07714,0.03291
6,1471,38.11674,46.49628,52.16781,27.43792,-0.86431,2.59292,9.44393,0.01865,0.10432,0.02864
7,1619,38.11674,46.54738,52.16781,27.43792,-0.40462,2.24217,9.69771,0.01026,0.08087,0.03291
8,1767,38.11674,46.49628,52.16781,27.43792,-0.38547,2.26491,9.73482,0.00879,0.07861,0.03264
9,1919,38.11674,46.49628,52.16781,27.43792,-0.38307,2.30801,9.7025,0.00813,0.07927,0.03171
10,2067,38.11674,46.49628,52.16781,27.43792,-0.413,2.28048,9.74081,0.00986,0.07901,0.03264
11,2218,38.11674,46.49628,52.16781,27.38682,-0.38427,2.26013,9.77193,0.00893,0.07847,0.03317
12,2369,38.11674,46.49628,52.16781,27.38682,-0.413,2.30562,9.76595,0.00746,0.07874,0.03344
13,2520,38.11674,46.49628,52.16781,27.38682,-0.42138,2.28048,9.61751,0.00586,0.07448,0.03091
14,2675,38.11674,46.49628,52.16781,27.38682,-0.4549,2.23978,9.69293,0.00719,0.07847,0.03277
15,2824,38.11674,46.54738,52.16781,27.38682,-0.38786,2.25294,9.73243,0.00746,0.07874,0.03264
16,2972,38.11674,46.49628,52.16781,27.38682,-0.39863,2.25175,9.70011,0.00759,0.07781,0.03131
17,3120,38.11674,46.49628,52.16781,27.43792,-0.39983,2.28527,9.75877,0.00813,0.07887,0.03224
18,3268,38.11674,46.54738,52.16781,27.38682,-0.43574,2.29245,9.76954,0.01039,0.08047,0.03171
19,3420,38.11674,46.54738,52.16781,27.38682,-0.39025,2.24456,9.65582,0.00853,0.07927,0.03238
20,3568,38.06564,46.49628,52.16781,27.38682,-0.41539,2.27329,9.77912,0.00986,0.081,0.03344
21,3716,38.11674,46.49628,52.16781,27.43792,-0.4118,2.28048,9.70011,0.00933,0.08127,0.03238
22,3864,38.11674,46.49628,52.16781,27.43792,-0.46567,2.28407,9.75877,0.00999,0.07927,0.03304
23,4012,38.11674,46.44519,52.16781,27.38682,-0.42258,2.25055,9.70011,0.00773,0.08021,0.03211
24,4164,38.11674,46.49628,52.16781,27.38682,-0.42138,2.28766,9.84017,0.00826,0.07954,0.03504
25,4312,38.11674,46.49628,52.16781,27.43792,-0.43455,2.24097,9.73961,0.006,0.0814,0.03424
26,4460,38.11674,46.49628,52.16781,27.43792,-0.47884,2.21823,9.80426,0.00879,0.081,0.03171
27,4608,38.11674,46.49628,52.16781,27.38682,-0.44053,2.25534,9.69293,0.00706,0.07701,0.03424
28,4756,38.11674,46.49628,52.21891,27.38682,0.20351,1.97282,8.55329,0.00706,0.09659,0.01972
29,4905,38.11674,46.49628,52.16781,27.43792,-0.45011,2.26611,9.82341,0.0064,0.07634,0.03277
30,5053,38.11674,46.49628,52.16781,27.43792,-0.40223,2.24576,9.59716,0.006,0.0814,0.03224
31,5201,38.11674,46.49628,52.16781,27.43792,-0.50996,2.5594,10.37288,-0.00093,0.07754,0.03184
32,5351,38.06564,46.49628,52.16781,27.33573,-0.54468,2.32716,10.05565,0.01919,0.14669,0.02838
33,5500,38.06564,46.49628,52.16781,27.38682,-0.38188,2.25294,9.79947,0.00306,0.07354,0.03238
34,5652,38.11674,46.54738,52.16781,27.38682,-0.42258,2.25175,9.5816,0.00986,0.08114,0.03264
35,5800,38.16783,46.54738,52.16781,27.38682,-0.38307,2.23978,9.76834,0.00919,0.07807,0.03331
36,5948,38.11674,46.54738,52.16781,27.38682,-0.4118,2.26851,9.79228,0.00759,0.07741,0.03304
37,6096,38.11674,46.54738,52.16781,27.38682,-0.38547,2.34273,9.83059,0.00373,0.08247,0.03251
38,6244,38.11674,46.54738,52.16781,27.33573,-0.60094,2.21823,10.08917,-0.00067,0.10645,0.02745
39,6409,38.11674,46.49628,52.21891,27.38682,-0.44053,2.36906,9.74919,0.00813,0.07821,0.03344
40,6560,38.11674,46.49628,52.16781,27.43792,-0.47166,2.34632,9.49062,0.0044,0.07554,0.03238
41,6711,38.11674,46.54738,52.16781,27.38682,-0.57221,2.34871,9.9084,-0.0004,0.07115,0.02651
42,6862,38.11674,46.54738,52.16781,27.38682,-0.60573,2.62045,10.39323,0.02012,0.06821,0.03371
43,7013,38.11674,46.54738,52.16781,27.43792,-0.45969,2.25773,9.80785,0.00773,0.08087,0.03531
44,7167,38.11674,46.54738,52.16781,27.38682,-0.53271,2.20147,9.79109,-0.00093,0.07541,0.02864
45,7318,38.11674,46.54738,52.16781,27.38682,-0.47046,2.24456,9.84376,0.00719,0.0838,0.03144
46,7469,38.11674,46.54738,52.16781,27.43792,-0.40701,2.26252,9.77912,0.01119,0.08114,0.03384
47,7620,38.11674,46.49628,52.16781,27.43792,-0.44532,2.20027,9.79707,0.00613,0.08047,0.03304
48,7774,38.11674,46.54738,52.16781,27.38682,-0.50877,2.23978,9.95868,0.02385,0.07674,0.03118
49,7925,38.11674,46.54738,52.16781,27.43792,-0.50996,2.23618,9.81503,0.00506,0.07874,0.03264
50,8076,38.11674,46.54738,52.16781,27.38682,-0.46448,2.28287,9.60195,0.00813,0.07474,0.03184
51,8227,38.11674,46.49628,52.16781,27.43792,-0.41061,2.28527,9.77553,0.01026,0.07754,0.03397
52,8378,38.11674,46.54738,52.16781,27.43792,-0.48123,2.31519,9.87967,0.01439,0.08567,0.03371
53,8532,38.11674,46.49628,52.16781,27.43792,-0.47645,2.2314,9.86052,0.0056,0.06528,0.03637
54,8683,38.11674,46.54738,46.70066,27.33573,-0.38906,2.19429,10.71286,0.01665,0.11898,0.02891
55,8834,38.11674,46.44519,52.16781,27.38682,-0.44053,2.24217,9.71567,0.00693,0.07901,0.03238
56,8985,38.11674,46.54738,52.21891,27.38682,-0.50159,2.36547,9.81144,0.01013,0.07901,0.03451
57,9136,38.11674,46.54738,52.16781,27.43792,-0.40941,2.27569,9.70011,0.00893,0.07981,0.03437
58,9290,38.06564,46.49628,52.16781,27.43792,-0.50637,2.26132,9.68933,0.01266,0.07861,0.03371
59,9441,38.11674,46.54738,52.16781,27.38682,-0.38906,2.22062,9.78271,0.01119,0.07967,0.03357
60,9592,38.16783,46.49628,52.16781,27.43792,-0.59855,2.22421,9.69771,0.0052,0.08074,0.03371
61,9743,38.16783,46.54738,52.16781,27.43792,-0.42497,2.29604,9.71208,0.00733,0.07767,0.03304
62,9894,38.16783,46.54738,52.16781,27.43792,-0.43814,2.2278,9.76834,0.00893,0.08047,0.03224
63,10048,38.16783,46.59847,52.16781,27.43792,-0.45729,2.3535,9.76834,0.00879,0.08021,0.03224
64,10199,38.21893,46.59847,52.16781,27.43792,-0.43694,2.27689,9.72644,0.00866,0.07914,0.03238
65,10350,38.21893,46.59847,52.16781,27.43792,-0.46208,2.2709,9.7456,0.00986,0.08007,0.03384
66,10501,38.21893,46.59847,52.16781,27.43792,-0.43934,2.25055,9.75398,0.00733,0.07941,0.03317
67,10652,38.21893,46.59847,52.16781,27.43792,-0.42138,2.23618,9.7863,0.00813,0.07781,0.03198
68,10806,38.21893,46.59847,52.16781,27.43792,-0.42138,2.25414,9.75517,0.00759,0.08007,0.03264
69,10957,38.21893,46.54738,52.16781,27.48901,-0.43814,2.23738,9.77912,0.00813,0.07967,0.03264
70,11108,38.21893,46.59847,52.16781,27.48901,-0.42497,2.26731,9.72644,0.00866,0.07914,0.03224
71,11259,38.21893,46.59847,52.16781,27.43792,-0.44053,2.25654,9.7863,0.00946,0.07741,0.03118
72,11410,38.21893,46.59847,52.16781,27.43792,-0.43574,2.27808,9.73363,0.00773,0.07901,0.03331
73,11564,38.21893,46.59847,52.16781,27.43792,-0.41779,2.27569,9.73482,0.0064,0.08007,0.03317
74,11715,38.21893,46.59847,52.16781,27.43792,-0.47884,2.28527,9.827,0.00786,0.07954,0.03331
75,11866,38.21893,46.59847,52.16781,27.48901,-0.45011,2.26013,9.76475,0.00773,0.07861,0.03211
76,12017,38.21893,46.54738,52.16781,27.43792,-0.43694,2.27449,9.8258,0.00879,0.07847,0.03411
77,12168,38.21893,46.59847,52.16781,27.43792,-0.40701,2.25534,9.7456,0.01026,0.07954,0.03277
78,12324,38.21893,46.59847,52.16781,27.43792,-0.43574,2.229,9.74679,0.00959,0.07954,0.03317
79,12473,38.21893,46.59847,52.16781,27.48901,-0.42258,2.30801,9.73243,0.00879,0.08194,0.03317
80,12623,38.21893,46.59847,52.16781,27.43792,-0.46567,2.27808,9.75039,0.00866,0.07874,0.03384
81,12773,38.21893,46.54738,52.16781,27.43792,-0.47764,2.27689,9.75398,0.00906,0.07874,0.03291
82,12925,38.21893,46.59847,52.16781,27.48901,-0.45969,2.28646,9.71687,0.0048,0.07927,0.03264
83,13075,38.21893,46.59847,52.16781,27.43792,-0.44173,2.27569,9.75757,0.00946,0.07847,0.03304
84,13225,38.21893,46.59847,52.16781,27.48901,-0.43096,2.28886,9.81024,0.00946,0.07874,0.03251
85,13375,38.21893,46.59847,52.16781,27.43792,-0.41659,2.27808,9.73842,0.00959,0.07914,0.03264
86,13525,38.21893,46.59847,52.16781,27.43792,-0.43335,2.26013,9.78271,0.00973,0.07994,0.03317
87,13678,38.21893,46.59847,52.16781,27.43792,-0.45131,2.26132,9.73123,0.00759,0.07781,0.03397
88,13828,38.21893,46.59847,52.16781,27.43792,-0.43455,2.2709,9.73842,0.00893,0.07861,0.03211
89,13978,38.21893,46.59847,52.27,27.43792,-0.38547,2.2709,9.75877,0.00826,0.07861,0.03477
90,14128,38.21893,46.59847,52.16781,27.43792,-0.46328,2.29724,9.73602,0.00826,0.08021,0.03238
91,14278,38.21893,46.59847,52.16781,27.48901,-0.42258,2.27808,9.75158,0.00879,0.07914,0.03251
92,14431,38.21893,46.59847,52.16781,27.43792,-0.42737,2.26132,9.68933,0.00719,0.07741,0.03277
93,14581,38.21893,46.54738,52.16781,27.43792,-0.42856,2.27689,9.72525,0.00866,0.07927,0.03291
94,14731,38.21893,46.59847,52.16781,27.43792,-0.41779,2.30202,9.73482,0.00999,0.07821,0.03198
95,14881,38.21893,46.59847,52.16781,27.48901,-0.43574,2.28048,9.70609,0.00826,0.07887,0.03251
96,15031,38.21893,46.59847,52.16781,27.48901,-0.43455,2.27569,9.75757,0.00786,0.08007,0.03211
97,15184,38.21893,46.59847,52.16781,27.38682,-0.413,2.24935,9.74799,0.00759,0.07994,0.03331
98,15342,38.21893,46.59847,52.16781,27.43792,-0.43335,2.29245,9.73722,0.00959,0.07807,0.03224
99,15492,38.21893,46.59847,52.16781,27.18244,-0.42377,2.26013,9.7456,0.00799,0.0806,0.03451
100,15642,38.21893,46.59847,52.16781,27.43792,-0.42138,2.28407,9.73482,0.00773,0.07847,0.03397
101,15793,38.21893,46.59847,52.16781,27.43792,-0.46807,2.28886,9.75637,0.00759,0.07754,0.03198
102,15947,38.21893,46.59847,52.16781,27.43792,-0.46448,2.26611,9.73722,0.00933,0.081,0.03357
103,16098,38.21893,46.59847,52.16781,27.43792,-0.42737,2.26132,9.77792,0.00826,0.07927,0.03224
104,16249,38.21893,46.59847,52.16781,27.43792,-0.40462,2.3116,9.75757,0.00866,0.07807,0.03384
105,16400,38.21893,46.59847,52.16781,27.43792,-0.45011,2.25294,9.75398,0.00773,0.08007,0.03291
106,16554,38.21893,46.59847,52.16781,27.43792,-0.45011,2.20985,9.77074,0.00826,0.07887,0.03251
107,16705,38.21893,46.59847,52.16781,27.43792,-0.44652,2.25534,9.75877,0.00866,0.07887,0.03251
108,16856,38.21893,46.59847,52.16781,27.43792,-0.43934,2.28167,9.74919,0.00773,0.08074,0.03344
109,17007,38.21893,46.59847,52.16781,27.43792,-0.4525,2.26491,9.79827,0.00826,0.07954,0.03317
110,17158,38.21893,46.59847,52.16781,27.43792,-0.46328,2.28287,9.76116,0.01066,0.081,0.03291
111,17311,38.21893,46.59847,52.16781,27.43792,-0.4549,2.29245,9.77313,0.00933,0.07941,0.03397
112,17462,38.21893,46.59847,52.16781,27.43792,-0.44053,2.26252,9.76116,0.00706,0.07954,0.03384
113,17613,38.21893,46.59847,52.16781,27.43792,-0.45131,2.28886,9.70849,0.00986,0.07901,0.03198
114,17764,38.21893,46.59847,52.16781,27.43792,-0.44053,2.25294,9.75278,0.00719,0.07967,0.03304
115,17915,38.21893,46.59847,52.16781,27.43792,-0.4549,2.27569,9.7025,0.00946,0.07847,0.03331
116,18078,38.21893,46.59847,52.21891,27.43792,-0.41659,2.26372,9.79827,0.00733,0.07901,0.03331
117,18229,38.21893,46.59847,52.16781,27.48901,-0.43694,2.26731,9.74679,0.00986,0.07754,0.03251
118,18380,38.21893,46.59847,52.16781,27.43792,-0.4525,2.26851,9.75039,0.00866,0.07927,0.03371
119,18531,38.21893,46.59847,52.16781,27.43792,-0.43335,2.29724,9.76355,0.00839,0.07874,0.03277
120,18682,38.21893,46.59847,52.16781,27.43792,-0.42976,2.29963,9.75398,0.00706,0.07781,0.03397
121,18837,38.21893,46.59847,52.16781,27.43792,-0.43814,2.29245,9.71088,0.00906,0.07781,0.03264
122,18989,38.16783,46.59847,52.16781,27.43792,-0.45131,2.27449,9.77193,0.00839,0.07914,0.03238
123,19141,38.21893,46.59847,52.16781,27.43792,-0.4537,2.26731,9.75158,0.00626,0.07914,0.03264
124,19293,38.21893,46.59847,52.16781,27.43792,-0.46687,2.27928,9.72405,0.00839,0.08021,0.03304
125,19445,38.21893,46.59847,52.16781,27.43792,-0.42377,2.29724,9.76954,0.00839,0.07901,0.03211
126,19600,38.21893,46.59847,52.16781,27.48901,-0.43096,2.29963,9.73722,0.00746,0.07981,0.03331
127,19752,38.21893,46.59847,52.16781,27.43792,-0.46926,2.23858,9.73602,0.00839,0.08087,0.03317
128,19904,38.21893,46.59847,52.16781,27.43792,-0.46687,2.25534,9.7444,0.00826,0.07927,0.03357
129,20055,38.21893,46.59847,52.16781,27.43792,-0.46567,2.29125,9.74919,0.00759,0.07887,0.03024
130,20210,38.21893,46.59847,52.16781,27.43792,-0.45849,2.27569,9.77074,0.00893,0.07927,0.03344
131,20362,38.21893,46.59847,52.16781,27.43792,-0.42258,2.2697,9.75039,0.00946,0.07941,0.03238
132,20514,38.21893,46.59847,52.16781,27.43792,-0.43574,2.28527,9.78989,0.00839,0.07927,0.03384
133,20666,38.21893,46.59847,52.16781,27.43792,-0.45131,2.25414,9.77313,0.00893,0.07901,0.03397
134,20818,38.21893,46.59847,52.21891,27.43792,-0.48483,2.26372,9.73961,0.00759,0.07847,0.03211
135,20973,38.21893,46.59847,52.21891,27.43792,-0.44772,2.2697,9.74201,0.00759,0.07821,0.03211
136,21125,38.21893,46.59847,52.16781,27.43792,-0.44173,2.25414,9.76475,0.00826,0.08021,0.03397
137,21277,38.21893,46.59847,52.16781,27.43792,-0.4549,2.2697,9.74919,0.00799,0.07901,0.03264
138,21428,38.21893,46.59847,52.16781,27.43792,-0.39983,2.26132,9.76355,0.00866,0.08034,0.03357
139,21580,38.21893,46.59847,52.16781,27.43792,-0.44412,2.27928,9.71926,0.00839,0.07967,0.03357
140,21735,38.21893,46.59847,52.16781,27.48901,-0.45131,2.28646,9.74679,0.00799,0.07887,0.03264
141,21887,38.21893,46.59847,52.16781,27.38682,-0.41659,2.2709,9.75877,0.00906,0.07874,0.03411
142,22039,38.21893,46.59847,52.16781,27.43792,-0.46328,2.23618,9.73363,0.00879,0.07941,0.03291
143,22191,38.21893,46.59847,52.16781,27.48901,-0.46328,2.26731,9.75278,0.00853,0.07847,0.03424
144,22343,38.21893,46.59847,52.16781,27.43792,-0.44293,2.26611,9.76475,0.00919,0.07901,0.03224
145,22498,38.21893,46.59847,52.16781,27.43792,-0.48004,2.28167,9.7049,0.00919,0.08034,0.03251
146,22650,38.21893,46.59847,52.16781,27.43792,-0.44891,2.24456,9.73004,0.00919,0.07794,0.03424
147,22801,38.21893,46.59847,52.16781,27.43792,-0.47285,2.29843,9.77074,0.00866,0.07954,0.03411
148,22953,38.21893,46.59847,52.16781,27.43792,-0.43455,2.2697,9.77553,0.00799,0.07927,0.03264
149,23108,38.21893,46.59847,52.16781,27.48901,-0.43814,2.26611,9.68335,0.00919,0.07941,0.03371
150,23259,38.21893,46.59847,52.16781,27.48901,-0.45011,2.29843,9.75637,0.00866,0.07861,0.03158
151,23410,38.21893,46.59847,52.16781,27.43792,-0.41899,2.26013,9.69412,0.01026,0.07954,0.03211
152,23561,38.21893,46.59847,52.16781,27.43792,-0.42617,2.30322,9.73004,0.00879,0.08007,0.03198
153,23712,38.21893,46.59847,52.16781,27.48901,-0.4142,2.28167,9.70969,0.00786,0.08047,0.03331
154,23877,38.21893,46.59847,52.16781,27.43792,-0.44532,2.28886,9.74081,0.00773,0.08127,0.03131
155,24029,38.21893,46.64957,52.16781,27.43792,-0.43096,2.25414,9.73602,0.00853,0.07981,0.03411
156,24181,38.21893,46.59847,52.16781,27.43792,-0.4118,2.27928,9.77553,0.00866,0.08087,0.03357
157,24333,38.21893,46.59847,52.16781,27.43792,-0.42138,2.314,9.74201,0.00933,0.07861,0.03317
158,24485,38.21893,46.59847,52.16781,27.48901,-0.46567,2.29245,9.7875,0.00759,0.08034,0.03238
159,24640,38.21893,46.59847,52.16781,27.43792,-0.44652,2.26491,9.73602,0.00866,0.07914,0.03304
160,24792,38.27002,46.59847,52.16781,27.43792,-0.42258,2.2709,9.77193,0.00813,0.07994,0.03291
161,24944,38.21893,46.59847,52.16781,27.48901,-0.40103,2.29484,9.74081,0.00946,0.08034,0.03264
162,25096,38.21893,46.59847,52.16781,27.43792,-0.42377,2.26611,9.79707,0.00679,0.07727,0.03411
163,25248,38.21893,46.59847,52.11671,27.43792,-0.44053,2.23379,9.77553,0.00773,0.07981,0.03317
164,25403,38.21893,46.59847,52.16781,27.43792,-0.46448,2.2697,9.78031,0.00746,0.07901,0.03344
165,25555,38.21893,46.59847,52.16781,27.43792,-0.413,2.26372,9.77792,0.00986,0.0806,0.03291
166,25707,38.21893,46.59847,52.16781,27.43792,-0.42976,2.28886,9.73243,0.00959,0.07901,0.03291
167,25859,38.21893,46.59847,52.16781,27.48901,-0.41659,2.21583,9.71447,0.00813,0.07954,0.03491
168,26011,38.21893,46.59847,52.16781,27.48901,-0.4537,2.26491,9.77792,0.00919,0.07767,0.03251
169,26166,38.21893,46.59847,52.16781,27.43792,-0.43096,2.2697,9.77672,0.00919,0.07847,0.03317
170,26318,38.21893,46.59847,52.16781,27.43792,-0.44173,2.26611,9.78869,0.00759,0.07701,0.03224
171,26470,38.21893,46.59847,52.16781,27.43792,-0.44293,2.28167,9.75877,0.00813,0.07927,0.03198
172,26622,38.21893,46.59847,52.16781,27.43792,-0.44652,2.2721,9.71088,0.00746,0.07981,0.03277
173,26777,38.21893,46.59847,52.16781,27.43792,-0.413,2.29604,9.78869,0.00946,0.07874,0.03357
174,26929,38.21893,46.54738,52.16781,27.43792,-0.40821,2.26851,9.70131,0.00906,0.07634,0.03277
175,27081,38.21893,46.59847,52.16781,27.43792,-0.42856,2.26372,9.77074,0.00999,0.08007,0.03264
176,27233,38.21893,46.59847,52.16781,27.43792,-0.42737,2.27928,9.73602,0.00813,0.07954,0.03277
177,27385,38.21893,46.59847,52.21891,27.43792,-0.46807,2.27329,9.77313,0.00959,0.07781,0.03131
178,27540,38.21893,46.59847,52.16781,27.43792,-0.42617,2.29005,9.7432,0.00866,0.07981,0.03357
179,27692,38.21893,46.59847,52.16781,27.43792,-0.41899,2.26851,9.78031,0.00906,0.07967,0.03344
180,27844,38.21893,46.59847,52.16781,27.48901,-0.4118,2.2721,9.72764,0.00786,0.07914,0.03411
181,27996,38.21893,46.59847,52.16781,27.43792,-0.43455,2.28646,9.73363,0.00759,0.07954,0.03184
182,28148,38.21893,46.59847,52.16781,27.43792,-0.38307,2.30921,9.76834,0.00839,0.07927,0.03304
183,28303,38.21893,46.59847,52.16781,27.43792,-0.48123,2.3104,9.76116,0.00999,0.07914,0.03251
184,28455,38.21893,46.59847,52.16781,27.43792,-0.46687,2.30801,9.76595,0.01013,0.07794,0.03224
185,28607,38.21893,46.59847,52.16781,27.48901,-0.45849,2.26731,9.69293,0.00893,0.07941,0.03411
186,28759,38.21893,46.59847,52.16781,27.43792,-0.50159,2.29724,9.78869,0.00866,0.07994,0.03304
187,28911,38.21893,46.59847,52.16781,27.43792,-0.42497,2.30083,9.74919,0.00879,0.07834,0.03331
188,29066,38.21893,46.59847,52.16781,27.43792,-0.45849,2.27689,9.7432,0.00946,0.07901,0.03211
189,29218,38.21893,46.59847,52.16781,27.48901,-0.41899,2.30681,9.75517,0.00866,0.0806,0.03277
190,29370,38.21893,46.59847,52.16781,27.43792,-0.50996,2.25294,9.71208,0.00946,0.07594,0.03397
191,29522,38.21893,46.54738,52.16781,27.43792,-0.39504,2.3116,9.80426,0.00853,0.07861,0.03384
192,29674,38.21893,46.59847,52.16781,27.48901,-0.44652,2.29484,9.66779,0.00799,0.07781,0.03131
193,29839,38.21893,46.59847,52.16781,27.43792,-0.41659,2.29484,9.80306,0.00826,0.07981,0.03251
194,29989,38.21893,46.59847,52.16781,27.43792,-0.43335,2.2721,9.72046,0.00959,0.07874,0.03344
195,30140,38.21893,46.59847,52.16781,27.43792,-0.40701,2.30202,9.76954,0.00879,0.07874,0.03317
196,30291,38.21893,46.59847,52.16781,27.48901,-0.4549,2.26491,9.75517,0.00866,0.07781,0.03264
197,30445,38.21893,46.59847,52.16781,27.43792,-0.40223,2.27329,9.74081,0.01053,0.07807,0.03437
198,30596,38.21893,46.59847,52.16781,27.43792,-0.43574,2.29245,9.76954,0.00786,0.07847,0.03171
199,30747,38.21893,46.54738,52.16781,27.43792,-0.41539,2.3116,9.69891,0.00773,0.07981,0.03291
200,30898,38.21893,46.59847,52.16781,27.48901,-0.42617,2.25414,9.72166,0.00719,0.07967,0.03224
201,31049,38.21893,46.59847,52.16781,27.43792,-0.47645,2.28048,9.68574,0.00853,0.07901,0.03158
202,31203,38.21893,46.59847,52.16781,27.48901,-0.43934,2.28646,9.69771,0.01026,0.07994,0.03424
203,31354,38.21893,46.59847,52.16781,27.43792,-0.41899,2.26851,9.827,0.00733,0.08087,0.03384
204,31505,38.21893,46.59847,52.16781,27.43792,-0.44412,2.28886,9.76595,0.00893,0.07847,0.03331
205,31656,38.21893,46.59847,52.16781,27.43792,-0.4525,2.2709,9.82102,0.00986,0.07741,0.03238
206,31807,38.21893,46.59847,52.16781,27.43792,-0.4549,2.2709,9.76834,0.00666,0.08021,0.03158
207,31961,38.21893,46.59847,52.16781,27.43792,-0.42856,2.25414,9.77074,0.00839,0.07941,0.03251
208,32112,38.21893,46.59847,52.16781,27.48901,-0.44891,2.29604,9.72405,0.00919,0.07927,0.03331
209,32263,38.21893,46.59847,52.16781,27.48901,-0.39025,2.2709,9.7444,0.01039,0.07861,0.03304
210,32414,38.21893,46.59847,52.16781,27.43792,-0.40941,2.28407,9.76236,0.00879,0.07781,0.03277
211,32573,38.21893,46.59847,52.16781,27.38682,-0.40342,2.28646,9.77313,0.00746,0.07901,0.03291
212,32726,38.21893,46.59847,52.16781,27.43792,-0.4142,2.29724,9.75877,0.00986,0.07981,0.03411
213,32877,38.21893,46.59847,52.11671,27.43792,-0.4549,2.27329,9.78271,0.00866,0.07914,0.03384
214,33028,38.21893,46.59847,52.21891,27.43792,-0.43694,2.27329,9.73961,0.00733,0.08154,0.03264
215,33179,38.21893,46.59847,52.16781,27.48901,-0.49321,2.27569,9.74201,0.00839,0.07781,0.03264
216,33332,38.21893,46.59847,52.16781,27.43792,-0.42258,2.27569,9.77912,0.00946,0.07901,0.03344
217,33483,38.21893,46.59847,52.16781,27.43792,-0.48363,2.26372,9.76595,0.00733,0.08021,0.03277
218,33634,38.21893,46.59847,52.16781,27.43792,-0.42377,2.32238,9.76116,0.01119,0.07727,0.03304
219,33785,38.21893,46.59847,52.16781,27.43792,-0.47046,2.28287,9.77074,0.00879,0.07901,0.03277
220,33936,38.21893,46.59847,52.16781,27.43792,-0.42258,2.28407,9.73243,0.00759,0.07941,0.03437
221,34090,38.21893,46.59847,52.16781,27.43792,-0.44293,2.26851,9.7025,0.00986,0.08021,0.03051
222,34241,38.21893,46.59847,52.21891,27.43792,-0.48243,2.29245,9.81383,0.00879,0.07781,0.03304
223,34392,38.21893,46.59847,52.16781,27.43792,-0.42856,2.24935,9.74679,0.00986,0.07954,0.03411
224,34543,38.21893,46.59847,52.16781,27.43792,-0.4561,2.28407,9.73123,0.00813,0.07887,0.03224
225,34694,38.21893,46.59847,52.16781,27.43792,-0.40941,2.27689,9.74919,0.00826,0.07701,0.03317
226,34848,38.21893,46.59847,52.16781,27.43792,-0.46088,2.30562,9.74081,0.00839,0.07887,0.03331
227,34999,38.21893,46.54738,52.21891,27.43792,-0.43694,2.27808,9.82102,0.00733,0.0806,0.03264
228,35150,38.21893,46.59847,52.16781,27.43792,-0.93374,2.28766,9.72764,0.00613,0.07354,0.02931
229,35301,38.21893,46.59847,52.16781,27.48901,-0.54109,2.2697,9.86172,0.01013,0.07861,0.03251
230,35452,38.21893,46.59847,52.16781,27.43792,-0.50039,2.25654,9.77313,0.00773,0.07541,0.03317
231,35615,38.21893,46.59847,52.16781,27.43792,-0.39385,2.27329,9.70969,0.00786,0.07608,0.03344
232,35766,38.21893,46.59847,52.16781,27.43792,-0.41899,2.26252,9.77074,0.00879,0.07821,0.03317
233,35917,38.21893,46.59847,52.16781,27.43792,-0.40462,2.32118,9.74081,0.00866,0.07674,0.03238
234,36068,38.21893,46.59847,52.16781,27.43792,-0.39385,2.26252,9.71806,0.01053,0.07741,0.03357
235,36219,38.21893,46.59847,52.16781,27.43792,-0.46088,2.2302,9.78151,0.00839,0.07901,0.03224
236,36374,38.21893,46.59847,52.16781,27.43792,-0.40821,2.28287,9.73482,0.00973,0.07887,0.03317
237,36525,38.21893,46.59847,52.16781,27.43792,-0.4561,2.27449,9.78989,0.00893,0.07754,0.03264
238,36677,38.21893,46.59847,52.16781,27.43792,-0.45729,2.24696,9.75877,0.00866,0.0806,0.03144
239,36829,38.21893,46.59847,52.16781,27.48901,-0.48123,2.21703,9.76834,0.00666,0.0818,0.03437
240,36984,38.21893,46.59847,52.16781,27.43792,-0.41899,2.27808,9.7851,0.00826,0.07941,0.03291
241,37136,38.21893,46.59847,52.16781,27.43792,-0.42497,2.2709,9.73961,0.01013,0.07874,0.03357
242,37288,38.21893,46.59847,52.16781,27.48901,-0.43335,2.29484,9.74201,0.00759,0.08007,0.03357
243,37439,38.21893,46.59847,52.16781,27.43792,-0.44772,2.29843,9.73722,0.00986,0.07967,0.03317
244,37591,38.21893,46.59847,52.16781,27.43792,-0.44652,2.27449,9.78271,0.00973,0.07914,0.03264
245,37746,38.21893,46.59847,52.27,27.43792,-0.45011,2.27808,9.72285,0.00919,0.08167,0.03451
246,37898,38.21893,46.59847,52.16781,27.43792,-0.44173,2.3128,9.72525,0.00826,0.08007,0.03437
247,38050,38.21893,46.59847,52.16781,27.43792,-0.42018,2.28407,9.78151,0.00853,0.07954,0.03317
248,38202,38.21893,46.59847,52.16781,27.43792,-0.41779,2.27689,9.73961,0.00933,0.07994,0.03411
249,38354,38.21893,46.59847,52.16781,27.43792,-0.45969,2.27329,9.74799,0.00746,0.08007,0.03317
250,38509,38.21893,46.59847,52.16781,27.43792,-0.44891,2.25414,9.75996,0.00773,0.08087,0.03277
251,38661,38.21893,46.59847,52.16781,27.43792,-0.44532,2.30083,9.77912,0.00959,0.07874,0.03251
252,38812,38.21893,46.59847,52.16781,27.48901,-0.42856,2.29125,9.74919,0.00893,0.07901,0.03171
253,38964,38.21893,46.59847,52.21891,27.43792,-0.43455,2.27689,9.72405,0.00866,0.07887,0.03317
254,39116,38.21893,46.59847,52.16781,27.48901,-0.45011,2.25893,9.76475,0.00826,0.07981,0.03224
255,39271,38.21893,46.59847,52.16781,27.43792,-0.413,2.2709,9.79827,0.00799,0.07954,0.03344
256,39423,38.21893,46.59847,52.16781,27.43792,-0.42976,2.28287,9.80186,0.00826,0.07981,0.03331
257,39575,38.21893,46.59847,52.16781,27.48901,-0.45131,2.26851,9.77074,0.00919,0.07807,0.03277
258,39727,38.21893,46.59847,52.16781,27.43792,-0.46567,2.29963,9.7049,0.00813,0.07861,0.03171
259,39879,38.21893,46.59847,52.16781,27.43792,-0.43934,2.23499,9.73363,0.00866,0.07701,0.03437
260,40034,38.21893,46.59847,52.16781,27.43792,-0.44891,2.30322,9.73363,0.00893,0.08034,0.03384
261,40186,38.21893,46.59847,52.16781,27.48901,-0.41659,2.30442,9.71208,0.00919,0.07981,0.03491
262,40337,38.21893,46.64957,52.16781,27.43792,-0.44173,2.2697,9.78391,0.00959,0.07781,0.03371
263,40489,38.21893,46.59847,52.16781,27.43792,-0.44173,2.30442,9.72405,0.00853,0.08114,0.03331
264,40644,38.21893,46.59847,52.16781,27.43792,-0.4537,2.23379,9.74081,0.00919,0.08114,0.03424
265,40795,38.21893,46.59847,52.16781,27.43792,-0.45849,2.26491,9.81503,0.00906,0.07914,0.03238
266,40946,38.21893,46.59847,52.16781,27.43792,-0.4549,2.26491,9.7444,0.00759,0.07914,0.03397
267,41097,38.21893,46.59847,52.16781,27.43792,-0.41779,2.28167,9.76595,0.00706,0.07967,0.03317
268,41248,38.21893,46.59847,52.16781,27.43792,-0.4118,2.25773,9.72884,0.00946,0.07887,0.03411
269,41413,38.21893,46.59847,52.16781,27.43792,-0.47166,2.24816,9.76475,0.0064,0.07954,0.03384
270,41565,38.21893,46.59847,52.16781,27.43792,-0.42377,2.29365,9.75996,0.00853,0.08034,0.03198
271,41717,38.21893,46.59847,52.16781,27.43792,-0.42258,2.28646,9.74201,0.00839,0.07954,0.03238
272,41869,38.21893,46.59847,52.16781,27.43792,-0.45729,2.25893,9.7444,0.00733,0.07914,0.03264
273,42021,38.21893,46.59847,52.16781,27.48901,-0.44293,2.25175,9.78271,0.00786,0.07807,0.03357
274,42176,38.21893,46.59847,52.16781,27.43792,-0.4525,2.31519,9.76595,0.00973,0.07901,0.03344
275,42328,38.21893,46.59847,52.16781,27.48901,-0.42617,2.30681,9.77193,0.00879,0.07754,0.03344
276,42480,38.21893,46.59847,52.16781,27.43792,-0.45011,2.29005,9.73722,0.00759,0.08087,0.03291
277,42632,38.21893,46.59847,52.16781,27.43792,-0.43215,2.27808,9.7432,0.00906,0.07901,0.03158
278,42784,38.21893,46.59847,52.16781,27.43792,-0.44293,2.24816,9.7456,0.00906,0.07914,0.03331
279,42939,38.21893,46.59847,52.16781,27.43792,-0.40941,2.26372,9.75877,0.00879,0.07834,0.03331
280,43091,38.21893,46.59847,52.16781,27.43792,-0.44173,2.27449,9.75158,0.00839,0.07767,0.03291
281,43243,38.21893,46.59847,52.16781,27.43792,-0.45849,2.30322,9.77074,0.00946,0.07941,0.03384
282,43395,38.21893,46.59847,52.16781,27.43792,-0.47645,2.23858,9.74679,0.00826,0.07781,0.03264
283,43550,38.21893,46.59847,52.16781,27.43792,-0.44173,2.27329,9.73722,0.00733,0.07887,0.03291
284,43702,38.21893,46.59847,52.16781,27.38682,-0.43574,2.25534,9.73123,0.00866,0.07954,0.03238
285,43854,38.21893,46.59847,52.16781,27.48901,-0.43814,2.30202,9.76475,0.01106,0.07914,0.03264
286,44006,38.21893,46.59847,52.16781,27.43792,-0.43335,2.27569,9.73123,0.00839,0.07967,0.03424
287,44158,38.21893,46.59847,52.16781,27.43792,-0.42377,2.31759,9.78151,0.00853,0.08047,0.03331
288,44313,38.21893,46.59847,52.16781,27.43792,-0.44053,2.24816,9.72046,0.00826,0.08074,0.03344
289,44465,38.21893,46.59847,52.16781,27.43792,-0.43934,2.27329,9.72405,0.00959,0.08087,0.03424
290,44617,38.21893,46.59847,52.16781,27.43792,-0.42258,2.33076,9.74799,0.00999,0.07927,0.03211
291,44769,38.21893,46.59847,52.16781,27.43792,-0.4561,2.25414,9.70969,0.00866,0.07887,0.03317
292,44921,38.21893,46.59847,52.16781,27.43792,-0.43574,2.26252,9.72644,0.01159,0.08007,0.03331
293,45076,38.21893,46.59847,52.16781,27.43792,-0.39385,2.29963,9.79707,0.00839,0.07954,0.03251
294,45228,38.21893,46.59847,52.16781,27.48901,-0.4537,2.28167,9.69293,0.00693,0.07954,0.03171
295,45380,38.21893,46.59847,52.16781,27.43792,-0.40462,2.2709,9.7049,0.00746,0.07927,0.03344
296,45532,38.21893,46.59847,52.16781,27.48901,-0.45849,2.27329,9.76116,0.00906,0.07954,0.03371
297,45684,38.21893,46.59847,52.16781,27.43792,-0.37589,2.24576,9.76595,0.00946,0.0806,0.03411
298,45839,38.21893,46.59847,52.16781,27.43792,-0.43455,2.27928,9.75517,0.00919,0.07981,0.03357
299,45991,38.21893,46.59847,52.16781,27.43792,-0.43096,2.2302,9.72285,0.00853,0.07927,0.03224
300,46143,38.21893,46.59847,52.16781,27.43792,-0.42856,2.27569,9.79947,0.00786,0.07727,0.03251
301,46295,38.21893,46.59847,52.16781,27.43792,-0.4537,2.32118,9.74679,0.00879,0.08127,0.03251
302,46447,38.21893,46.59847,52.16781,27.43792,-0.50637,2.10211,9.65941,0.00733,0.08114,0.03304
303,46602,38.21893,46.64957,52.21891,27.43792,-0.43215,2.23618,9.62589,0.00866,0.07967,0.03078
304,46754,38.21893,46.59847,52.16781,27.43792,-0.42737,2.27569,9.69532,0.01066,0.07981,0.03304
305,46906,38.21893,46.59847,52.16781,27.43792,-0.42617,2.28766,9.73363,0.00986,0.07967,0.03397
306,47058,38.21893,46.59847,52.16781,27.43792,-0.6596,2.29843,9.85453,0.00826,0.08127,0.03131
307,47223,38.21893,46.59847,52.16781,27.48901,-0.43455,2.28048,9.75877,0.00866,0.08007,0.03291
308,47373,38.21893,46.59847,52.16781,27.48901,-0.46567,2.28287,9.78031,0.00839,0.07901,0.03264
309,47524,38.21893,46.59847,52.16781,27.43792,-0.45011,2.29724,9.84496,0.00973,0.07994,0.03264
310,47675,38.21893,46.59847,52.16781,27.43792,-0.43096,2.24097,9.81264,0.00933,0.0818,0.03158
311,47826,38.21893,46.59847,52.16781,27.48901,0.00239,2.35829,9.8258,0.00666,0.07927,0.02585
312,47978,38.21893,46.59847,52.16781,27.43792,-0.80445,2.19668,9.7444,0.00959,0.08434,0.03251
313,48129,38.21893,46.59847,52.16781,27.43792,-0.45969,2.22182,9.72644,0.00919,0.0842,0.03677
314,48280,38.21893,46.59847,52.16781,27.43792,-0.33279,2.32597,9.75039,0.00839,0.08194,0.03264
315,48431,38.21893,46.59847,52.16781,27.48901,-0.53032,2.26372,9.7432,0.00839,0.08074,0.03384
316,48582,38.27002,46.59847,52.16781,27.43792,-0.43934,2.26013,9.73482,0.00906,0.0826,0.03251
317,48736,38.21893,46.59847,52.16781,27.48901,-0.38666,2.32118,9.84855,0.00933,0.07981,0.03184
318,48887,38.21893,46.59847,52.21891,27.43792,-0.44053,2.24217,9.72405,0.00893,0.08034,0.03451
319,49038,38.21893,46.59847,52.16781,27.43792,-0.38188,2.23858,9.72525,0.00773,0.07914,0.03317
320,49189,38.21893,46.59847,52.16781,27.43792,-0.35195,2.28646,9.80785,0.00893,0.07781,0.03464
321,49340,38.21893,46.59847,52.16781,27.43792,-0.36871,2.1883,9.71567,0.00879,0.07927,0.03291
322,49494,38.27002,46.59847,52.16781,27.48901,-0.42617,2.25055,9.76834,0.00853,0.07927,0.03317
323,49645,38.21893,46.59847,52.16781,27.43792,-0.39983,2.30442,9.81982,0.00813,0.07874,0.03371
324,49804,38.21893,46.59847,52.16781,27.48901,-0.37589,2.15358,9.84975,0.00919,0.08007,0.03357
325,49955,38.21893,46.59847,52.16781,27.43792,-0.47166,2.23978,9.71687,0.00866,0.07234,0.03517
326,50106,38.21893,46.59847,52.16781,27.43792,-0.44772,2.2709,9.72525,0.00746,0.07834,0.03291
327,50260,38.21893,46.59847,52.16781,27.43792,-0.4537,2.33195,9.80665,0.00906,0.07861,0.03384
328,50411,38.21893,46.59847,52.16781,27.48901,-0.46567,2.3116,9.7037,0.00679,0.07954,0.03451
329,50562,38.21893,46.59847,52.16781,27.43792,-0.48004,2.26611,9.68455,0.01279,0.09033,0.03171
330,50713,38.21893,46.59847,52.16781,27.43792,-0.47884,2.28646,9.76595,0.01199,0.08247,0.03397
331,50867,38.21893,46.59847,52.16781,27.38682,-0.39624,2.29843,9.56244,0.01066,0.07528,0.03611
332,51018,38.21893,46.59847,52.16781,27.43792,-0.46926,2.37146,9.76116,0.01479,0.07368,0.03677
333,51169,38.21893,46.59847,52.16781,27.43792,-0.44532,2.33674,9.79109,0.00839,0.07874,0.03371
334,51320,38.21893,46.54738,52.16781,27.43792,-0.38547,2.25654,9.93833,0.02771,0.08074,0.0429
335,51471,38.21893,46.54738,52.16781,27.43792,-0.46448,2.27928,9.74201,0.00919,0.08194,0.03544
336,51625,38.21893,46.59847,52.16781,27.43792,-0.47525,2.34512,9.76954,0.00773,0.081,0.03424
337,51776,38.21893,46.54738,52.16781,27.43792,-0.41061,2.34273,9.77792,0.0056,0.08167,0.03357
338,51927,38.21893,46.54738,52.16781,27.43792,-0.42138,2.28048,9.7851,0.00733,0.08034,0.03371
339,52078,38.21893,46.54738,52.16781,27.48901,-0.4549,2.27689,9.75039,0.00133,0.07807,0.03304
340,52229,38.21893,46.54738,52.16781,27.43792,-0.39744,2.20985,9.59716,-0.00453,0.07781,0.03171
341,52384,38.21893,46.59847,52.16781,27.43792,-0.38666,2.21464,9.60075,0.01452,0.08513,0.03571
342,52535,38.21893,46.54738,52.16781,27.43792,-0.5375,2.26132,9.32302,0.00213,0.0882,0.03224
343,52686,38.21893,46.59847,52.16781,27.43792,-0.50039,2.29843,9.70969,0.01053,0.0838,0.03651
344,52837,38.21893,46.59847,52.16781,27.43792,-0.58179,2.2709,9.5373,0.00893,0.06222,0.03317
345,52988,38.21893,46.59847,52.16781,27.43792,-0.47884,2.37026,9.85573,0.02158,0.07581,0.04343
346,53151,38.21893,46.59847,52.16781,27.43792,-0.45011,2.32716,9.76954,0,0.0814,0.03131
347,53302,38.21893,46.59847,52.16781,27.43792,-0.46328,2.44089,9.71926,0.03691,0.091,0.0481
348,53453,38.21893,46.54738,52.16781,27.48901,-0.48004,2.27449,9.56484,0.00187,0.07807,0.03424
349,53604,38.21893,46.54738,52.16781,27.48901,-0.44891,2.3104,9.7875,0.00173,0.07981,0.03264
350,53759,38.21893,46.59847,52.16781,27.43792,-0.42258,2.32477,9.81144,0.0032,0.07741,0.03331
351,53911,38.21893,46.59847,52.16781,27.48901,-0.45131,2.2697,9.68694,0,0.07914,0.03251
352,54063,38.21893,46.59847,52.16781,27.43792,-0.40103,2.26851,9.67018,0.00626,0.08074,0.03397
353,54214,38.21893,46.59847,52.16781,27.48901,-0.44293,2.26491,9.74919,0.00893,0.081,0.03437
354,54366,38.21893,46.59847,52.11671,27.43792,-0.48722,2.26252,9.67736,0.00813,0.07954,0.03211
355,54521,38.21893,46.59847,52.16781,27.43792,-0.44053,2.18471,9.34218,0.01159,0.07901,0.03344
356,54673,38.21893,46.59847,52.16781,27.43792,-0.4537,2.25055,9.62708,0.00746,0.07941,0.03291
357,54825,38.21893,46.59847,52.16781,27.43792,-0.49799,2.26252,9.7863,0.00187,0.08593,0.03224
358,54977,38.21893,46.59847,52.16781,27.43792,-0.50278,2.2697,9.73004,0.00773,0.07901,0.03264
359,55129,38.21893,46.54738,52.16781,27.48901,-0.45969,2.29365,9.85693,0.01972,0.07568,0.03517
360,55284,38.21893,46.59847,52.16781,27.43792,-0.4142,2.3104,9.83658,0.00906,0.07954,0.03211
361,55436,38.21893,46.59847,52.16781,27.43792,-0.46088,2.25654,9.79468,0.0056,0.07554,0.03317
362,55588,38.21893,46.59847,52.16781,27.43792,-0.43096,2.24456,9.76954,0.00893,0.07741,0.03264
363,55739,38.21893,46.59847,52.21891,27.43792,-0.42377,2.24456,9.7444,0.0048,0.07927,0.03198
364,55891,38.21893,46.59847,52.16781,27.48901,-0.41779,2.2302,9.68215,0.00786,0.07781,0.03224
365,56046,38.21893,46.59847,52.16781,27.43792,-0.42617,2.2721,9.84975,0.00879,0.08127,0.03277
366,56198,38.21893,46.59847,52.11671,27.43792,-0.45849,2.27569,9.76954,0.00773,0.07994,0.03384
367,56350,38.21893,46.59847,52.11671,27.43792,-0.46926,2.30202,9.84137,0.01106,0.08114,0.03277
368,56502,38.21893,46.59847,52.16781,27.43792,-0.43096,2.27329,9.79109,0.00879,0.07994,0.03331
369,56654,38.21893,46.59847,52.16781,27.48901,-0.45849,2.28287,9.72764,0.00919,0.07927,0.03277
370,56809,38.21893,46.59847,52.16781,27.43792,-0.43574,2.29843,9.76715,0.00786,0.08021,0.03357
371,56961,38.21893,46.59847,52.16781,27.48901,-0.4118,2.20027,9.6223,0.006,0.07714,0.03397
372,57112,38.21893,46.59847,52.11671,27.48901,-0.43335,2.25055,9.72644,0.00879,0.07861,0.03291
373,57264,38.21893,46.59847,52.16781,27.48901,-0.46328,2.29005,9.83059,0.00959,0.07967,0.03397
374,57419,38.21893,46.59847,52.11671,27.48901,-0.41899,2.27449,9.7875,0.00866,0.07901,0.03291
375,57571,38.21893,46.59847,52.16781,27.48901,-0.42856,2.28287,9.83538,0.00839,0.08114,0.03357
376,57723,38.21893,46.59847,52.16781,27.43792,-0.44772,2.27329,9.73602,0.00906,0.07914,0.03331
377,57875,38.21893,46.59847,52.16781,27.48901,-0.42377,2.27808,9.75398,0.00973,0.07861,0.03437
378,58027,38.16783,46.59847,52.16781,27.48901,-0.44532,2.25534,9.77792,0.00826,0.07927,0.03264
379,58182,38.21893,46.59847,52.16781,27.48901,-0.46088,2.27449,9.7037,0.00879,0.07954,0.03344
380,58333,38.21893,46.54738,52.16781,27.43792,-0.413,2.33554,9.81982,0.01079,0.08087,0.03277
381,58484,38.21893,46.59847,52.16781,27.48901,-0.4525,2.25175,9.75637,0.00813,0.08007,0.03357
382,58635,38.16783,46.59847,52.16781,27.48901,-0.44053,2.24097,9.74919,0.00746,0.07901,0.03291
383,58786,38.21893,46.59847,52.16781,27.48901,-0.45131,2.29484,9.75158,0.00839,0.08047,0.03331
384,58951,38.21893,46.59847,52.16781,27.43792,-0.43574,2.23978,9.72046,0.00853,0.07821,0.03198
385,59103,38.21893,46.59847,52.16781,27.43792,-0.47645,2.24816,9.77433,0.00999,0.07901,0.03304
386,59255,38.21893,46.59847,52.16781,27.43792,-0.42258,2.23499,9.73722,0.00919,0.08034,0.03291
387,59407,38.21893,46.59847,52.16781,27.43792,-0.46208,2.28527,9.76954,0.00773,0.07981,0.03277
388,59559,38.27002,46.59847,52.16781,27.48901,-0.45011,2.26851,9.67497,0.00933,0.07994,0.03331
389,59714,38.21893,46.59847,52.16781,27.43792,-0.47645,2.28287,9.69652,0.00853,0.07821,0.03238
390,59866,38.21893,46.59847,52.16781,27.43792,-0.46926,2.28527,9.70969,0.00826,0.07994,0.03424
391,60018,38.21893,46.59847,52.16781,27.43792,-0.4549,2.23618,9.6618,0.00879,0.07914,0.03277
392,60170,38.21893,46.54738,52.16781,27.48901,-0.47405,2.31519,9.82341,0.00799,0.07967,0.03384
393,60322,38.21893,46.54738,52.16781,27.48901,-0.4537,2.25175,9.75398,0.00666,0.07927,0.03184
394,60477,38.16783,46.54738,52.16781,27.43792,-0.42976,2.31998,9.80066,0.00799,0.08087,0.03224
395,60629,38.16783,46.54738,52.16781,27.43792,-0.41061,2.25654,9.71447,0.00906,0.07874,0.03198
396,60781,38.16783,46.54738,52.11671,26.87587,-0.43934,2.26851,9.67018,0.00933,0.07781,0.03424
397,60933,38.21893,46.54738,52.16781,25.85398,-0.44772,2.25055,9.77553,0.00919,0.07967,0.03277
398,61088,38.21893,46.59847,52.16781,27.13135,-0.46448,2.29005,9.7049,0.00626,0.07954,0.03277
399,61240,38.21893,46.59847,52.16781,26.87587,-0.42856,2.27449,9.73961,0.00799,0.0806,0.03384
400,61392,38.21893,46.59847,52.16781,27.02916,-0.41539,2.32118,9.76715,0.00839,0.07794,0.03397
401,61544,38.21893,46.59847,52.16781,27.33573,-0.46807,2.28048,9.76355,0.00946,0.07967,0.03357
402,61696,38.21893,46.59847,52.16781,27.33573,-0.44772,2.31878,9.7851,0.00866,0.07981,0.03331
403,61851,38.21893,46.59847,52.16781,27.28463,-0.3735,2.24097,9.81742,0.00999,0.07714,0.03224
404,62003,38.21893,46.59847,52.16781,27.33573,-0.41539,2.21464,9.70011,0.01892,0.07608,0.03331
405,62155,38.21893,46.59847,52.16781,27.33573,-0.47046,2.28407,9.72525,0.00866,0.08034,0.03331
406,62307,38.21893,46.59847,52.16781,27.43792,-0.45131,2.30801,9.79947,0.00919,0.07781,0.03291
407,62459,38.21893,46.54738,52.16781,27.43792,-0.35195,2.23738,9.65462,0.00826,0.07941,0.03158
408,62614,38.21893,46.59847,52.16781,27.43792,-0.46448,2.23858,9.71208,0.00586,0.08194,0.03317
409,62766,38.21893,46.59847,52.16781,27.33573,-0.40701,2.22541,9.68455,0.01026,0.08447,0.03424
410,62918,38.21893,46.59847,52.16781,27.48901,-0.39624,2.25175,9.79707,0.00679,0.07834,0.03397
411,63070,38.21893,46.59847,52.16781,27.5912,-0.46448,2.29365,9.91918,0.00333,0.07501,0.03544
412,63222,38.21893,46.59847,52.16781,27.54011,-0.52672,2.33794,9.94312,0.01839,0.08447,0.03184
413,63377,38.21893,46.59847,52.16781,27.48901,-0.47645,2.21583,9.38886,-0.0056,0.08953,0.02998
414,63530,38.21893,46.59847,52.16781,27.54011,-0.47046,2.28766,9.67497,0.00346,0.07794,0.03264
415,63682,38.21893,46.59847,52.11671,27.54011,-0.43335,2.29005,9.70011,0.00799,0.07727,0.03357
416,63834,38.21893,46.59847,52.16781,27.48901,-0.19273,2.3128,9.55167,0.01119,0.08607,0.03144
417,63989,38.21893,46.59847,52.16781,27.54011,-0.29449,2.24696,9.75877,0.00746,0.07714,0.03544
418,64141,38.21893,46.59847,52.16781,27.54011,-0.44532,2.30322,9.73961,0.00879,0.07661,0.03371
419,64293,38.21893,46.59847,52.16781,27.54011,-0.3735,2.27689,9.76355,0.00546,0.07714,0.03304
420,64445,38.21893,46.59847,52.16781,27.48901,-0.51834,2.31998,9.70609,0.01226,0.0806,0.03357
421,64597,38.21893,46.59847,52.16781,27.54011,-0.36392,2.27808,9.76715,0.00733,0.07967,0.03357
422,64762,38.21893,46.59847,52.16781,27.54011,-0.51356,2.25654,9.663,0.00586,0.07741,0.03344
423,64912,38.21893,46.59847,52.16781,27.54011,-0.48483,2.37744,9.66659,0.01159,0.0826,0.03384
424,65063,38.21893,46.59847,52.16781,27.54011,-0.50877,2.3116,9.90601,0.01106,0.08034,0.03251
425,65214,38.21893,46.59847,52.16781,27.48901,-0.45729,2.2302,9.81144,0.01306,0.0834,0.03397
426,65365,38.21893,46.59847,52.16781,27.54011,-0.43934,2.27689,9.64504,0.01013,0.07088,0.03158
427,65519,38.21893,46.59847,52.16781,27.54011,-0.40582,2.27928,9.77433,0.01053,0.07621,0.03424
428,65670,38.21893,46.59847,52.16781,27.54011,-0.43694,2.24696,9.72405,0.00693,0.08087,0.03451
429,65821,38.21893,46.59847,52.16781,27.54011,-0.4537,2.3966,9.5397,0.01306,0.07155,0.03171
430,65972,38.21893,46.59847,52.16781,27.48901,-0.44891,2.31759,9.76834,0.00879,0.07914,0.03317
431,66123,38.21893,46.54738,52.16781,27.48901,-0.46328,2.26611,9.6211,0.00866,0.08114,0.03291
432,66277,38.21893,46.59847,52.16781,27.48901,-0.44652,2.28048,9.69293,0.00826,0.08114,0.03371
433,66428,38.21893,46.59847,52.16781,27.48901,-0.32441,2.33914,9.98622,0.02065,0.0846,0.03198
434,66579,38.21893,46.59847,52.16781,27.48901,-0.42258,2.25773,9.66898,0.00586,0.07767,0.03344
435,66730,38.21893,46.59847,52.16781,27.48901,-0.41659,2.23738,9.75398,0.00586,0.07901,0.03371
436,66881,38.21893,46.54738,52.16781,27.48901,-0.45729,2.25175,9.73602,0.00999,0.07794,0.03331
437,67043,38.21893,46.59847,52.16781,27.48901,-0.43215,2.28048,9.67138,0.00719,0.08327,0.03291
438,67194,38.21893,46.59847,52.16781,27.54011,-0.40821,2.23379,9.55885,0.00999,0.07794,0.03291
439,67345,38.21893,46.59847,52.16781,27.48901,-0.41779,2.2709,9.71567,0.00973,0.07847,0.03397
440,67496,38.21893,46.59847,52.16781,27.48901,-0.42258,2.2721,9.75517,0.01013,0.07754,0.03504
441,67650,38.21893,46.59847,52.16781,27.48901,-0.4968,2.34991,9.80426,0.01146,0.07954,0.03411
442,67801,38.21893,46.59847,52.16781,27.48901,-0.47046,2.1895,9.57202,0.01106,0.07887,0.03331
443,67952,38.21893,46.59847,52.16781,27.48901,-0.49919,2.1895,9.65462,0.01199,0.08087,0.03517
444,68103,38.21893,46.59847,52.16781,27.48901,-0.4537,2.28407,9.74081,0.00746,0.07608,0.03317
445,68254,38.21893,46.59847,52.16781,27.48901,-0.4142,2.3116,9.79827,0.00773,0.07861,0.03277
446,68408,38.21893,46.59847,52.16781,27.48901,-0.43215,2.25294,9.73722,0.00999,0.07887,0.03277
447,68559,38.21893,46.59847,52.16781,27.48901,-0.42737,2.29125,9.76954,0.00986,0.07967,0.03437
448,68710,38.21893,46.59847,52.16781,27.48901,-0.42377,2.24935,9.71926,0.00826,0.07941,0.03344
449,68861,38.21893,46.59847,52.11671,27.48901,-0.44652,2.26731,9.7049,0.00719,0.07887,0.03464
450,69012,38.21893,46.59847,52.16781,27.48901,-0.45011,2.30921,9.76595,0.00813,0.07914,0.03344
451,69166,38.21893,46.59847,52.16781,27.54011,-0.45729,2.28527,9.73123,0.00693,0.07901,0.03184
452,69317,38.21893,46.59847,52.16781,27.54011,-0.45729,2.26252,9.70609,0.00879,0.07847,0.03277
453,69468,38.21893,46.54738,52.16781,27.48901,-0.48004,2.30083,9.73602,0.00813,0.08021,0.03277
454,69619,38.21893,46.59847,52.16781,27.48901,-0.42617,2.29604,9.76236,0.00839,0.07754,0.03211
455,69770,38.21893,46.59847,52.16781,27.54011,-0.42258,2.29005,9.70969,0.00853,0.07954,0.03344
456,69924,38.21893,46.59847,52.16781,27.54011,-0.45969,2.2721,9.81982,0.00679,0.07901,0.03317
457,70075,38.21893,46.59847,52.16781,27.54011,-0.46088,2.29125,9.80665,0.00706,0.07941,0.03238
458,70226,38.21893,46.59847,52.16781,27.48901,-0.44532,2.26851,9.78989,0.00813,0.08074,0.03371
459,70377,38.21893,46.59847,52.16781,27.48901,-0.44772,2.27808,9.71088,0.00773,0.07847,0.03171
460,70528,38.21893,46.59847,52.16781,27.54011,-0.43096,2.23978,9.70609,0.00826,0.08274,0.03331
461,70691,38.21893,46.59847,52.16781,27.48901,-0.45131,2.27808,9.77193,0.00679,0.07847,0.03424
462,70842,38.21893,46.59847,52.16781,27.48901,-0.4561,2.28167,9.73123,0.00826,0.07941,0.03131
463,70993,38.21893,46.59847,52.16781,27.48901,-0.41659,2.26731,9.74201,0.00759,0.08074,0.03331
464,71144,38.21893,46.59847,52.16781,27.54011,-0.48722,2.25414,9.76475,0.00826,0.081,0.03264
465,71299,38.21893,46.59847,52.16781,27.54011,-0.46448,2.26132,9.72764,0.00786,0.08127,0.03291
466,71451,38.21893,46.59847,52.16781,27.48901,-0.44053,2.30801,9.78869,0.00946,0.07874,0.03277
467,71603,38.21893,46.59847,52.16781,27.54011,-0.43574,2.30442,9.74081,0.00839,0.08074,0.03291
468,71755,38.21893,46.59847,52.16781,27.48901,-0.42976,2.28527,9.74799,0.00813,0.07954,0.03291
469,71907,38.21893,46.59847,52.16781,27.48901,-0.45131,2.28527,9.83418,0.00773,0.0814,0.03291
470,72062,38.21893,46.59847,52.16781,27.48901,-0.42138,2.29125,9.76355,0.00759,0.07914,0.03317
471,72214,38.21893,46.59847,52.16781,27.48901,-0.42856,2.2709,9.70011,0.00946,0.07821,0.03304
472,72366,38.21893,46.59847,52.16781,27.48901,-0.45729,2.2721,9.7049,0.00866,0.081,0.03211
473,72518,38.21893,46.59847,52.16781,27.54011,-0.4537,2.2721,9.76595,0.00879,0.07927,0.03371
474,72670,38.21893,46.54738,52.16781,27.48901,-0.44772,2.29604,9.72046,0.00879,0.07887,0.03357
475,72825,38.21893,46.59847,52.16781,27.48901,-0.43574,2.25294,9.73722,0.00853,0.07861,0.03238
476,72977,38.21893,46.59847,52.16781,27.48901,-0.44412,2.30322,9.78869,0.00773,0.07807,0.03251
477,73128,38.21893,46.59847,52.16781,27.48901,-0.4537,2.26731,9.71687,0.00653,0.07954,0.03304
478,73280,38.21893,46.59847,52.16781,27.48901,-0.39504,2.26013,9.77672,0.00839,0.081,0.03251
479,73432,38.21893,46.59847,52.16781,27.48901,-0.44652,2.28527,9.7444,0.00746,0.07994,0.03424
480,73587,38.21893,46.59847,52.16781,27.48901,-0.4549,2.27569,9.75158,0.00773,0.07914,0.03317
481,73739,38.21893,46.59847,52.16781,27.54011,-0.42856,2.26013,9.83538,0.00786,0.07781,0.03384
482,73891,38.21893,46.59847,52.16781,27.54011,-0.43694,2.29604,9.7863,0.00826,0.07914,0.03371
483,74043,38.21893,46.59847,52.16781,27.48901,-0.41899,2.25654,9.7037,0.00733,0.07887,0.03451
484,74198,38.21893,46.59847,52.16781,27.54011,-0.43455,2.2721,9.71328,0.00786,0.07901,0.03477
485,74350,38.21893,46.64957,52.16781,27.48901,-0.46687,2.25175,9.73961,0.00879,0.08034,0.03291
486,74502,38.21893,46.59847,52.11671,27.48901,-0.42976,2.27449,9.7456,0.00919,0.07887,0.03264
487,74654,38.21893,46.59847,52.16781,27.54011,-0.48602,2.25534,9.78031,0.00853,0.08047,0.03344
488,74806,38.21893,46.59847,52.16781,27.54011,-0.47285,2.28646,9.77433,0.00973,0.081,0.03437
489,74961,38.21893,46.59847,52.11671,27.48901,-0.46567,2.28167,9.71806,0.00879,0.07927,0.03317
490,75113,38.21893,46.59847,52.11671,27.48901,-0.41779,2.29125,9.73004,0.00906,0.07807,0.03344
491,75265,38.21893,46.59847,52.16781,27.43792,-0.4537,2.25294,9.7875,0.00693,0.07914,0.03304
492,75417,38.21893,46.59847,52.16781,27.48901,-0.44412,2.27569,9.77792,0.01013,0.07967,0.03238
493,75569,38.21893,46.59847,52.16781,27.54011,-0.46328,2.29604,9.77074,0.00799,0.07914,0.03251
494,75724,38.21893,46.59847,52.16781,27.54011,-0.42138,2.32956,9.73482,0.00759,0.07967,0.03424
495,75875,38.21893,46.59847,52.16781,27.54011,-0.43335,2.30202,9.73842,0.00933,0.07941,0.03317
496,76026,38.21893,46.59847,52.16781,27.48901,-0.43574,2.29125,9.76954,0.00866,0.08021,0.03357
497,76177,38.21893,46.59847,52.16781,27.54011,-0.44772,2.24935,9.76954,0.00799,0.0814,0.03357
498,76329,38.21893,46.59847,52.16781,27.48901,-0.44053,2.26491,9.75398,0.00813,0.07967,0.03211
499,76494,38.21893,46.59847,52.16781,27.48901,-0.45729,2.32118,9.73842,0.01039,0.07901,0.03211
500,76646,38.21893,46.59847,52.16781,27.48901,-0.44053,2.2721,9.7851,0.00866,0.08021,0.03371
501,76798,38.21893,46.59847,52.16781,27.48901,-0.45849,2.24816,9.73004,0.00813,0.07887,0.03264
502,76950,38.21893,46.59847,52.16781,27.54011,-0.44412,2.24576,9.76475,0.00853,0.07754,0.03158
503,77102,38.21893,46.59847,52.16781,27.48901,-0.44772,2.33435,9.76475,0.00853,0.07674,0.03344
504,77257,38.21893,46.59847,52.16781,27.54011,-0.34955,2.27569,9.73842,0.00759,0.08287,0.03064
505,77409,38.21893,46.59847,52.16781,27.48901,-0.60813,2.23499,9.72285,0.01013,0.07967,0.03437
506,77561,38.21893,46.59847,52.16781,27.48901,-0.49081,2.26372,9.74919,0.00933,0.07981,0.03238
507,77713,38.21893,46.59847,52.16781,27.48901,-0.5387,2.32716,9.75877,0.00826,0.07821,0.03198
508,77868,38.21893,46.59847,52.16781,27.48901,-0.48722,2.29484,9.76236,0.00773,0.07914,0.03584
509,78020,38.21893,46.59847,52.16781,27.54011,-0.46088,2.25773,9.7049,0.00853,0.07927,0.03384
510,78172,38.21893,46.59847,52.16781,27.54011,-0.43934,2.33554,9.78989,0.01266,0.08207,0.03277
511,78324,38.21893,46.59847,52.16781,27.48901,-0.46328,2.29484,9.84496,0.00773,0.07981,0.03317
512,78476,38.21893,46.59847,52.16781,27.48901,-0.42497,2.21224,9.66539,0.00826,0.08087,0.03437
513,78631,38.21893,46.59847,52.16781,27.54011,-0.38906,2.30202,10.0317,0.00733,0.07594,0.03477
514,78784,38.21893,46.59847,52.16781,27.48901,-0.50996,2.36308,9.7863,0.00893,0.07887,0.03371
515,78936,38.21893,46.59847,52.16781,27.48901,-0.43574,2.19309,9.75877,0.00866,0.083,0.03251
516,79088,38.21893,46.59847,52.11671,27.48901,-0.4537,2.26013,9.77553,0.01013,0.07727,0.03411
517,79240,38.21893,46.59847,52.16781,27.48901,-0.42617,2.27329,9.80665,0.00986,0.07754,0.03384
518,79395,38.21893,46.59847,52.16781,27.54011,-0.45131,2.25055,9.70131,0.00999,0.07634,0.03211
519,79547,38.21893,46.59847,52.16781,27.48901,-0.47645,2.29245,9.79348,0.00813,0.07981,0.03331
520,79699,38.21893,46.59847,52.16781,27.48901,-0.46926,2.27449,9.78391,0.00973,0.07861,0.03384
521,79851,38.21893,46.59847,52.16781,27.54011,-0.4968,2.24217,9.78031,0.00839,0.0822,0.03211
522,80003,38.21893,46.59847,52.16781,27.48901,-0.45729,2.29005,9.81383,0.00759,0.07887,0.03291
523,80158,38.21893,46.54738,52.16781,27.48901,-0.46448,2.27928,9.7444,0.00813,0.07687,0.03384
524,80310,38.21893,46.59847,52.16781,27.48901,-0.46926,2.28646,9.80066,0.01013,0.07941,0.03317
525,80462,38.21893,46.59847,52.16781,27.48901,-0.4525,2.25534,9.65821,0.00999,0.0814,0.03357
526,80614,38.21893,46.59847,52.16781,27.48901,-0.43934,2.24097,9.72764,0.00693,0.07887,0.03291
527,80769,38.21893,46.59847,52.16781,27.48901,-0.4561,2.26252,9.7456,0.00746,0.08074,0.03451
528,80921,38.21893,46.54738,52.16781,27.48901,-0.43694,2.24217,9.72285,0.00773,0.07847,0.03291
529,81073,38.21893,46.59847,52.16781,27.48901,-0.43814,2.28287,9.67976,0.00866,0.08021,0.03344
530,81225,38.21893,46.59847,52.21891,27.43792,-0.43694,2.28287,9.81742,0.00813,0.07834,0.03517
531,81377,38.21893,46.59847,52.16781,27.43792,-0.40941,2.26851,9.77193,0.00773,0.07927,0.03557
532,81532,38.21893,46.54738,52.16781,27.48901,-0.42138,2.26491,9.79827,0.00933,0.07967,0.03264
533,81684,38.21893,46.54738,52.16781,27.48901,-0.43694,2.29125,9.71328,0.00693,0.08007,0.03397
534,81836,38.21893,46.59847,52.16781,27.48901,-0.43694,2.2721,9.77672,0.00773,0.07901,0.03224
535,81988,38.21893,46.59847,52.16781,27.48901,-0.42976,2.29245,9.69412,0.00906,0.08007,0.03344
536,82140,38.21893,46.59847,52.16781,27.43792,-0.46328,2.26611,9.7875,0.00933,0.08034,0.03317
537,82305,38.21893,46.54738,52.16781,27.48901,-0.47764,2.26252,9.68814,0.00786,0.08021,0.03251
538,82455,38.21893,46.59847,52.16781,27.48901,-0.40701,2.29484,9.77553,0.00826,0.07994,0.03184
539,82606,38.21893,46.59847,52.16781,27.48901,-0.47405,2.29724,9.74919,0.00786,0.07941,0.03531
540,82757,38.21893,46.59847,52.16781,27.48901,-0.4561,2.28646,9.71926,0.00999,0.07901,0.03291
541,82908,38.21893,46.59847,52.16781,27.48901,-0.4549,2.28167,9.75039,0.00853,0.08021,0.03504
542,83062,38.21893,46.54738,52.21891,27.43792,-0.4525,2.27808,9.76116,0.00679,0.07861,0.03371
543,83213,38.21893,46.59847,52.16781,27.43792,-0.46807,2.2721,9.72644,0.00959,0.07941,0.03344
544,83364,38.21893,46.59847,52.16781,27.48901,-0.44053,2.2278,9.68694,0.00946,0.08007,0.03304
545,83515,38.21893,46.59847,52.16781,27.43792,-0.42617,2.2721,9.72764,0.00893,0.07847,0.03291
546,83666,38.21893,46.59847,52.16781,27.43792,-0.44652,2.27449,9.76954,0.00826,0.07861,0.03397
547,83820,38.21893,46.54738,52.11671,27.48901,-0.42497,2.25175,9.7456,0.00773,0.07927,0.03264
548,83971,38.16783,46.59847,52.16781,27.38682,-0.43215,2.32118,9.75517,0.00759,0.08034,0.03464
549,84122,38.21893,46.59847,52.16781,27.48901,-0.44532,2.27329,9.79588,0.00666,0.08074,0.03477
550,84273,38.21893,46.59847,52.16781,27.43792,-0.43694,2.25654,9.83059,0.00853,0.08207,0.03304
551,84437,38.21893,46.59847,52.16781,27.48901,-0.43574,2.30322,9.77792,0.00986,0.08127,0.03317
552,84588,38.21893,46.59847,52.16781,27.48901,-0.47285,2.26611,9.75039,0.00839,0.07754,0.03317
553,84739,38.21893,46.54738,52.16781,27.48901,-0.42377,2.28766,9.76116,0.00759,0.08114,0.03291
554,84890,38.21893,46.54738,52.16781,27.48901,-0.43455,2.3116,9.73722,0.00826,0.0814,0.03357
555,85041,38.21893,46.59847,52.16781,27.48901,-0.43934,2.2721,9.76116,0.00733,0.07874,0.03317
556,85195,38.27002,46.59847,52.16781,27.43792,-0.40462,2.20745,9.72764,0.00759,0.08047,0.03238
557,85346,38.21893,46.59847,52.16781,27.43792,-0.43096,2.30322,9.76595,0.00866,0.0806,0.03251
558,85497,38.21893,46.59847,52.16781,27.48901,-0.44293,2.28048,9.77074,0.00919,0.07967,0.03304
559,85648,38.21893,46.54738,52.16781,27.43792,-0.47764,2.30921,9.74081,0.01013,0.07874,0.03424
560,85799,38.21893,46.59847,52.16781,27.43792,-0.51595,2.26252,9.78031,0.00879,0.07927,0.03224
561,85953,38.21893,46.54738,52.16781,27.48901,-0.4525,2.29005,9.70849,0.00893,0.08154,0.03277
562,86104,38.21893,46.59847,52.21891,27.48901,-0.44293,2.29005,9.72405,0.00839,0.07981,0.03238
563,86255,38.21893,46.59847,52.16781,27.48901,-0.49081,2.28048,9.76116,0.00959,0.0822,0.03171
564,86406,38.21893,46.59847,52.16781,27.43792,-0.44652,2.30322,9.79228,0.00839,0.0806,0.03411
565,86557,38.21893,46.59847,52.16781,27.48901,-0.47764,2.27329,9.72166,0.01119,0.08127,0.03264
566,86711,38.21893,46.59847,52.11671,27.54011,-0.42737,2.28407,9.76236,0.00879,0.07981,0.03317
567,86862,38.21893,46.54738,52.11671,27.48901,-0.4525,2.26372,9.77672,0.00893,0.07914,0.03397
568,87013,38.21893,46.59847,52.16781,27.48901,-0.48842,2.27928,9.7875,0.00786,0.07834,0.03357
569,87164,38.21893,46.59847,52.21891,27.48901,-0.44891,2.27569,9.73842,0.00879,0.07861,0.03344
570,87315,38.21893,46.59847,52.16781,27.48901,-0.42497,2.2697,9.74081,0.00813,0.0818,0.03384
571,87469,38.21893,46.59847,52.16781,27.48901,-0.43574,2.26611,9.73961,0.00933,0.07847,0.03211
572,87620,38.21893,46.59847,52.16781,27.48901,-0.51834,2.24696,9.7456,0.00879,0.07954,0.03504
573,87771,38.21893,46.59847,52.16781,27.48901,-0.34357,2.29724,9.75637,0.00813,0.07861,0.03304
574,87922,38.21893,46.59847,52.16781,27.48901,-0.46208,2.28167,9.77553,0.00719,0.07954,0.03357
575,88085,38.21893,46.59847,52.16781,27.43792,-0.4525,2.26372,9.72644,0.00853,0.07994,0.03211
576,88236,38.21893,46.54738,52.16781,27.48901,-0.42377,2.28766,9.71806,0.00999,0.07861,0.03304
577,88387,38.21893,46.59847,52.16781,27.48901,-0.44293,2.27329,9.7456,0.00813,0.07741,0.03304
578,88538,38.21893,46.59847,52.16781,27.48901,-0.42737,2.27928,9.77313,0.00813,0.0806,0.03357
579,88689,38.21893,46.54738,52.16781,27.43792,-0.46328,2.27689,9.7432,0.00893,0.07834,0.03344
580,88844,38.21893,46.59847,52.16781,27.43792,-0.42377,2.2697,9.76715,0.00959,0.0806,0.03384
581,88996,38.21893,46.59847,52.16781,27.48901,-0.42258,2.30562,9.78869,0.00999,0.08007,0.03357
582,89148,38.21893,46.59847,52.16781,27.43792,-0.41061,2.30562,9.7444,0.00866,0.07967,0.03397
583,89299,38.21893,46.59847,52.16781,27.43792,-0.43814,2.28407,9.71687,0.00826,0.08074,0.03224
584,89451,38.21893,46.59847,52.16781,27.48901,-0.44891,2.29005,9.76116,0.00986,0.07861,0.03304
585,89606,38.21893,46.59847,52.16781,27.48901,-0.43694,2.23259,9.78869,0.00879,0.08167,0.03331
586,89758,38.21893,46.59847,52.16781,27.48901,-0.4561,2.30921,9.77672,0.01013,0.07941,0.03317
587,89910,38.21893,46.59847,52.16781,27.48901,-0.47046,2.2697,9.76595,0.00813,0.07901,0.03304
588,90062,38.21893,46.59847,52.16781,27.43792,-0.43574,2.27569,9.72405,0.00866,0.08047,0.03371
589,90214,38.21893,46.59847,52.16781,27.43792,-0.4537,2.29365,9.72525,0.00893,0.07941,0.03291
590,90369,38.21893,46.59847,52.16781,27.48901,-0.44772,2.25414,9.72166,0.00866,0.07807,0.03384
591,90521,38.21893,46.59847,52.16781,27.43792,-0.4549,2.28527,9.77074,0.00706,0.07967,0.03331
592,90673,38.21893,46.59847,52.16781,27.43792,-0.43335,2.28886,9.78031,0.00786,0.07781,0.03384
593,90824,38.21893,46.59847,52.16781,27.48901,-0.413,2.2709,9.83897,0.00906,0.08007,0.03344
594,90979,38.21893,46.59847,52.16781,27.43792,-0.37709,2.28646,9.72644,0.00706,0.07741,0.03371
595,91131,38.21893,46.54738,52.16781,27.43792,-0.43335,2.3104,9.75637,0.00919,0.0814,0.03211
596,91283,38.21893,46.59847,52.16781,27.38682,-0.56982,2.29005,9.74919,0.00786,0.0822,0.03251
597,91435,38.21893,46.54738,52.16781,27.38682,-0.43574,2.22661,9.6199,0.00799,0.07887,0.03437
598,91587,38.27002,46.54738,52.16781,27.38682,-0.47884,2.3104,9.74799,0.00773,0.07754,0.03504
599,91742,38.21893,46.54738,52.16781,27.38682,-0.40941,2.29843,9.73004,0.00826,0.07941,0.03144
600,91894,38.21893,46.54738,52.16781,27.38682,-0.47645,2.29724,9.75398,0.00813,0.07861,0.03291
601,92046,38.27002,46.54738,52.16781,27.33573,-0.45011,2.26851,9.80306,0.00839,0.07954,0.03397
602,92197,38.21893,46.54738,52.16781,27.38682,-0.42497,2.29484,9.72166,0.00933,0.07914,0.03317
603,92349,38.27002,46.54738,52.16781,27.33573,-0.4561,2.26611,9.7444,0.00746,0.07927,0.03411
604,92504,38.27002,46.54738,52.16781,27.38682,-0.42856,2.26372,9.75278,0.00706,0.07941,0.03304
605,92656,38.21893,46.54738,52.16781,27.43792,-0.40821,2.27449,9.73004,0.00813,0.07941,0.03344
606,92808,38.27002,46.54738,52.11671,27.38682,-0.43215,2.25773,9.7049,0.00879,0.08021,0.03384
607,92960,38.27002,46.54738,52.16781,27.38682,-0.48961,2.30442,9.79228,0.00893,0.07967,0.03571
608,93112,38.21893,46.54738,52.16781,27.38682,-0.43574,2.25654,9.73961,0.00853,0.08047,0.03357
609,93267,38.27002,46.54738,52.16781,27.33573,-0.47525,2.24576,9.7851,0.00839,0.0806,0.03331
610,93418,38.27002,46.54738,52.16781,27.38682,-0.43934,2.30921,9.75757,0.00866,0.07914,0.03277
611,93569,38.21893,46.54738,52.16781,27.38682,-0.47285,2.27329,9.79468,0.00879,0.07741,0.03424
612,93720,38.27002,46.54738,52.16781,27.38682,-0.43934,2.27928,9.75278,0.00759,0.07941,0.03411
613,93871,38.21893,46.54738,52.16781,27.38682,-0.44891,2.27689,9.72764,0.00959,0.0806,0.03397
614,94036,38.21893,46.54738,52.16781,27.38682,-0.46448,2.26013,9.73004,0.00773,0.07927,0.03437
615,94188,38.21893,46.54738,52.16781,27.38682,-0.43694,2.2721,9.71926,0.00879,0.08021,0.03384
616,94340,38.27002,46.54738,52.16781,27.38682,-0.46328,2.21105,9.75398,0.00906,0.07794,0.03357
617,94492,38.21893,46.54738,52.16781,27.33573,-0.46448,2.27928,9.74679,0.00853,0.08154,0.03357
618,94647,38.21893,46.54738,52.16781,27.38682,-0.45849,2.2709,9.75757,0.00826,0.07887,0.03317
619,94799,38.27002,46.54738,52.16781,27.38682,-0.44891,2.32956,9.76954,0.00893,0.08087,0.03238
620,94951,38.21893,46.54738,52.16781,27.38682,-0.45729,2.28287,9.70011,0.00799,0.08021,0.03211
621,95103,38.27002,46.54738,52.06562,27.33573,-0.43335,2.31639,9.79228,0.00893,0.07967,0.03304
622,95255,38.27002,46.54738,52.16781,27.38682,-0.44293,2.25055,9.73842,0.01026,0.08007,0.03371
623,95410,38.27002,46.54738,52.16781,27.38682,-0.45969,2.28766,9.71687,0.00906,0.07914,0.03277
624,95562,38.21893,46.54738,52.16781,27.38682,-0.44532,2.30801,9.78271,0.00826,0.07927,0.03424
625,95714,38.27002,46.54738,52.16781,27.38682,-0.44652,2.26252,9.69532,0.00906,0.07741,0.03331
626,95866,38.27002,46.54738,52.16781,27.38682,-0.48722,2.27569,9.71806,0.00786,0.08114,0.03304
627,96018,38.27002,46.54738,52.16781,27.38682,-0.46807,2.28646,9.76355,0.00879,0.07994,0.03224
628,96173,38.27002,46.54738,52.16781,27.38682,-0.43814,2.30322,9.73004,0.00746,0.07821,0.03131
629,96325,38.27002,46.54738,52.16781,27.38682,-0.44772,2.25893,9.71687,0.00946,0.0806,0.03304
630,96477,38.21893,46.54738,52.16781,27.38682,-0.40701,2.314,9.75398,0.01066,0.07847,0.03344
631,96629,38.27002,46.54738,52.16781,27.33573,-0.43934,2.28646,9.79348,0.00759,0.08021,0.03477
632,96781,38.21893,46.54738,52.16781,27.38682,-0.44532,2.27928,9.72285,0.00906,0.08021,0.03277
633,96936,38.27002,46.54738,52.16781,27.33573,-0.4549,2.28886,9.77313,0.00773,0.07941,0.03277
634,97088,38.27002,46.54738,52.16781,27.38682,-0.44652,2.24337,9.7432,0.00679,0.07834,0.03357
635,97240,38.21893,46.54738,52.16781,27.38682,-0.48004,2.25294,9.71208,0.00839,0.07714,0.03371
636,97392,38.27002,46.54738,52.16781,27.38682,-0.42737,2.30681,9.76834,0.00986,0.07754,0.03491
637,97544,38.21893,46.54738,52.16781,27.38682,-0.43455,2.26372,9.72644,0.00813,0.07781,0.03437
638,97699,38.21893,46.54738,52.16781,27.38682,-0.42617,2.22541,9.7875,0.00866,0.07861,0.03251
639,97851,38.21893,46.54738,52.16781,27.38682,-0.45011,2.25893,9.7875,0.00746,0.08087,0.03331
640,98003,38.21893,46.54738,52.16781,27.38682,-0.40223,2.30322,9.88326,0.01013,0.07754,0.03451
641,98155,38.21893,46.59847,52.16781,27.33573,-0.47046,2.26611,9.75877,0.00866,0.07674,0.03344
642,98310,38.21893,46.54738,52.16781,27.38682,-0.43455,2.30562,9.73363,0.00799,0.08154,0.03344
643,98462,38.21893,46.59847,52.16781,27.38682,-0.47405,2.26611,9.75158,0.00773,0.08007,0.03277
644,98614,38.21893,46.54738,52.16781,27.38682,-0.46448,2.26013,9.71567,0.00906,0.08087,0.03277
645,98766,38.21893,46.54738,52.16781,27.38682,-0.42976,2.26731,9.7432,0.00826,0.07821,0.03384
646,98918,38.21893,46.59847,52.16781,27.38682,-0.4956,2.29125,9.75158,0.00919,0.07901,0.03384
647,99073,38.21893,46.54738,52.16781,27.38682,-0.48363,2.314,9.73482,0.00866,0.08154,0.03344
648,99225,38.21893,46.59847,52.16781,27.38682,-0.40941,2.25294,9.80785,0.00746,0.07887,0.03357
649,99377,38.21893,46.59847,52.16781,27.38682,-0.42617,2.28287,9.76954,0.00826,0.07861,0.03371
650,99529,38.21893,46.59847,52.16781,27.33573,-0.40103,2.25294,9.71447,0.00879,0.07941,0.03491
651,99681,38.21893,46.59847,52.16781,27.38682,-0.38307,2.29724,9.76116,0.00879,0.0806,0.03397
652,99846,38.21893,46.59847,52.16781,27.33573,-0.44293,2.29365,9.73722,0.00866,0.08087,0.03397
653,99996,38.21893,46.59847,52.16781,27.38682,-0.46567,2.28766,9.78031,0.00799,0.08021,0.03424
654,100147,38.21893,46.59847,52.16781,27.38682,-0.4537,2.24337,9.73123,0.00986,0.07901,0.03331
655,100299,38.21893,46.59847,52.16781,27.38682,-0.44053,2.24696,9.73004,0.00759,0.08074,0.03331
656,100451,38.21893,46.59847,52.16781,27.38682,-0.4561,2.3128,9.70849,0.00919,0.07927,0.03424
657,100606,38.21893,46.59847,52.16781,27.33573,-0.51356,2.24217,9.78151,0.00866,0.08021,0.03424
658,100758,38.21893,46.59847,52.16781,27.43792,-0.4968,2.21583,9.69053,0.00919,0.07807,0.03397
659,100910,38.21893,46.59847,52.16781,27.33573,-0.43335,2.29125,9.78989,0.00999,0.07941,0.03331
660,101062,38.21893,46.59847,52.16781,27.33573,-0.49201,2.30801,9.72405,0.00879,0.08087,0.03291
661,101217,38.21893,46.59847,52.16781,27.38682,-0.54827,2.29365,9.73722,0.00853,0.07727,0.03317
662,101369,38.21893,46.59847,52.16781,27.33573,-0.4118,2.28167,9.73722,0.00933,0.07901,0.03331
663,101521,38.21893,46.59847,52.16781,27.38682,-0.46208,2.20745,9.72884,0.00813,0.08234,0.03344
664,101681,38.21893,46.59847,52.16781,27.38682,-0.42018,2.29005,9.78271,0.00973,0.0814,0.03304
665,101833,38.27002,46.54738,52.16781,27.38682,-0.44652,2.27689,9.73961,0.00826,0.08114,0.03357
666,101988,38.21893,46.59847,52.16781,27.33573,-0.44173,2.26851,9.77553,0.00866,0.07887,0.03238
667,102140,38.21893,46.59847,52.16781,27.33573,-0.42138,2.25534,9.71806,0.00919,0.08007,0.03198
668,102292,38.21893,46.59847,52.16781,27.38682,-0.4549,2.24935,9.78031,0.00906,0.07847,0.03451
669,102444,38.21893,46.59847,52.11671,27.38682,-0.4118,2.27569,9.80665,0.00946,0.07887,0.03317
670,102596,38.21893,46.59847,52.16781,27.33573,-0.42856,2.24337,9.73243,0.00839,0.07874,0.03291
671,102751,38.21893,46.49628,52.16781,27.38682,-0.4142,2.28766,9.75757,0.00906,0.07834,0.03331
672,102903,38.21893,46.59847,52.16781,27.33573,-0.46926,2.29843,9.72046,0.00826,0.0806,0.03384
673,103055,38.21893,46.59847,52.16781,27.38682,-0.42856,2.25534,9.71088,0.00759,0.07861,0.03331
674,103207,38.21893,46.59847,52.16781,27.38682,-0.43694,2.29365,9.79947,0.00879,0.08074,0.03304
675,103359,38.21893,46.54738,52.16781,27.38682,-0.45969,2.25893,9.72166,0.00773,0.08047,0.03411
676,103514,38.21893,46.59847,52.16781,27.38682,-0.41779,2.29963,9.76954,0.00613,0.07967,0.03238
677,103666,38.27002,46.59847,52.16781,27.38682,-0.4142,2.25893,9.70969,0.00893,0.08114,0.03264
678,103818,38.21893,46.59847,52.11671,27.38682,-0.41659,2.29125,9.73961,0.00866,0.081,0.03344
679,103970,38.21893,46.59847,52.16781,27.38682,-0.4549,2.28527,9.81982,0.00839,0.07821,0.03291
680,104125,38.21893,46.59847,52.16781,27.38682,-0.43215,2.29365,9.74081,0.00826,0.07847,0.03424
681,104277,38.21893,46.54738,52.16781,27.38682,-0.43335,2.29843,9.77313,0.00759,0.08127,0.03357
682,104429,38.21893,46.59847,52.16781,27.38682,-0.49919,2.24696,9.73363,0.00879,0.08034,0.03384
683,104581,38.21893,46.59847,52.16781,27.38682,-0.50996,2.22302,9.81144,0.00746,0.07701,0.03451
684,104733,38.21893,46.54738,52.16781,27.38682,-0.55665,2.30083,9.81503,0.00813,0.07568,0.03397
685,104888,38.21893,46.59847,52.16781,27.38682,-0.48961,2.26611,9.78151,0.00786,0.08047,0.03304
686,105040,38.21893,46.54738,52.16781,27.38682,-0.47405,2.26252,9.72166,0.00786,0.07927,0.03277
687,105192,38.16783,46.54738,52.16781,27.38682,-0.46567,2.29005,9.74919,0.00826,0.07847,0.03357
688,105344,38.27002,46.54738,52.16781,27.38682,-0.48602,2.21703,9.66898,0.00919,0.08034,0.03331
689,105496,38.21893,46.59847,52.16781,27.33573,-0.48602,2.27808,9.75517,0.00973,0.07861,0.03464
690,105660,38.21893,46.59847,52.16781,27.33573,-0.42138,2.28287,9.7037,0.00813,0.07914,0.03384
691,105813,38.21893,46.54738,52.16781,27.38682,-0.45011,2.23259,9.75877,0.0052,0.07981,0.03451
692,105965,38.21893,46.54738,52.16781,27.43792,-0.45011,2.29604,9.69771,0.00813,0.07861,0.03344
693,106117,38.21893,46.54738,52.16781,27.33573,-0.43814,2.26491,9.70729,0.00733,0.07861,0.03291
694,106270,38.21893,46.54738,52.16781,27.33573,-0.46567,2.29245,9.73363,0.01013,0.07834,0.03384
695,106426,38.27002,46.54738,52.16781,27.38682,-0.46926,2.28048,9.78391,0.00866,0.07967,0.03437
696,106579,38.21893,46.54738,52.11671,27.38682,-0.47884,2.28167,9.75517,0.00799,0.08074,0.03384
697,106732,38.16783,46.54738,52.16781,27.33573,-0.43574,2.29005,9.73363,0.00746,0.081,0.03437
698,106885,38.21893,46.54738,52.16781,27.38682,-0.45729,2.25654,9.76595,0.00799,0.07861,0.03411
699,107041,38.21893,46.59847,52.16781,27.33573,-0.43694,2.25654,9.77074,0.00786,0.07887,0.03291
700,107194,38.21893,46.59847,52.16781,27.33573,-0.4549,2.2697,9.73363,0.00759,0.07861,0.03331
701,107347,38.27002,46.54738,52.16781,27.38682,-0.43335,2.30921,9.79109,0.00786,0.07941,0.03397
702,107500,38.21893,46.54738,52.21891,27.33573,-0.46687,2.26013,9.77074,0.00759,0.07874,0.03291
703,107653,38.21893,46.54738,52.16781,27.38682,-0.4549,2.29724,9.75517,0.00813,0.07874,0.03264
704,107809,38.21893,46.54738,52.16781,27.38682,-0.40941,2.30562,9.71926,0.00799,0.08047,0.03331
705,107962,38.21893,46.54738,52.16781,27.38682,-0.44173,2.28287,9.75158,0.00879,0.07927,0.03277
706,108115,38.21893,46.54738,52.16781,27.38682,-0.47764,2.28527,9.75278,0.00773,0.07834,0.03264
707,108268,38.21893,46.54738,52.16781,27.33573,-0.44652,2.24217,9.78869,0.00866,0.07887,0.03411
708,108421,38.21893,46.54738,52.16781,27.38682,-0.44293,2.25654,9.76236,0.00813,0.07847,0.03184
709,108577,38.21893,46.59847,52.16781,27.38682,-0.43934,2.2697,9.76355,0.00759,0.07981,0.03331
710,108730,38.21893,46.54738,52.16781,27.38682,-0.47046,2.28646,9.75637,0.00919,0.07901,0.03091
711,108883,38.21893,46.54738,52.16781,27.38682,-0.48483,2.27689,9.73842,0.00786,0.07967,0.03171
712,109036,38.27002,46.54738,52.16781,27.38682,-0.50039,2.31998,9.72525,0.00959,0.07981,0.03371
713,109189,38.21893,46.54738,52.16781,27.43792,-0.43335,2.28048,9.74081,0.00706,0.07994,0.03291
714,109345,38.27002,46.54738,52.16781,27.38682,-0.46687,2.29365,9.75398,0.00893,0.07954,0.03304
715,109498,38.21893,46.59847,52.11671,27.33573,-0.45131,2.26611,9.7444,0.01053,0.07994,0.03491
716,109651,38.21893,46.59847,52.16781,27.38682,-0.41539,2.2709,9.75278,0.00973,0.07847,0.03371
717,109804,38.21893,46.54738,52.16781,27.38682,-0.45131,2.25534,9.73722,0.00973,0.07954,0.03344
718,109960,38.21893,46.59847,52.16781,27.38682,-0.42617,2.26731,9.75278,0.00999,0.08127,0.03371
719,110113,38.21893,46.59847,52.16781,27.33573,-0.46687,2.2721,9.77553,0.00773,0.07981,0.03184
720,110266,38.27002,46.59847,52.16781,27.33573,-0.47884,2.29604,9.73243,0.00693,0.07914,0.03424
721,110419,38.21893,46.54738,52.16781,27.38682,-0.45729,2.2709,9.71567,0.00879,0.08034,0.03357
722,110572,38.21893,46.54738,52.16781,27.38682,-0.47285,2.27808,9.69891,0.00813,0.07941,0.03344
723,110728,38.27002,46.54738,52.16781,27.38682,-0.43814,2.26611,9.76954,0.00986,0.0806,0.03317
724,110881,38.27002,46.59847,52.16781,27.38682,-0.4525,2.25175,9.76595,0.00853,0.08034,0.03317
725,111033,38.21893,46.59847,52.16781,27.38682,-0.45729,2.2709,9.73243,0.00959,0.08074,0.03491
726,111185,38.21893,46.54738,52.11671,27.38682,-0.47764,2.30322,9.71447,0.00839,0.081,0.03304
727,111338,38.21893,46.59847,52.16781,27.33573,-0.44532,2.27808,9.72525,0.00946,0.07901,0.03317
728,111504,38.27002,46.59847,52.16781,27.38682,-0.43455,2.2721,9.73363,0.00853,0.07927,0.03184
729,111657,38.21893,46.59847,52.16781,27.38682,-0.4968,2.27808,9.69891,0.00906,0.08007,0.03211
730,111810,38.21893,46.59847,52.16781,27.33573,-0.44652,2.29843,9.74679,0.00786,0.07941,0.03238
731,111963,38.21893,46.54738,52.16781,27.38682,-0.4537,2.27569,9.75996,0.00826,0.07927,0.03238
732,112116,38.21893,46.59847,52.16781,27.33573,-0.47764,2.25773,9.73363,0.00853,0.07901,0.03238
733,112272,38.21893,46.59847,52.16781,27.38682,-0.44293,2.26132,9.77433,0.00826,0.07821,0.03371
734,112425,38.21893,46.54738,52.16781,27.38682,-0.43934,2.30202,9.77672,0.00826,0.07954,0.03251
735,112578,38.27002,46.59847,52.16781,27.33573,-0.43455,2.27689,9.75877,0.00839,0.07861,0.03384
736,112731,38.27002,46.54738,52.16781,27.33573,-0.43096,2.28886,9.75517,0.00799,0.07861,0.03277
737,112887,38.21893,46.59847,52.16781,27.38682,-0.46448,2.24576,9.73602,0.00919,0.07927,0.03224
738,113040,38.21893,46.54738,52.16781,27.38682,-0.44532,2.27329,9.7456,0.00799,0.07821,0.03304
739,113193,38.21893,46.54738,52.16781,27.38682,-0.46208,2.29125,9.80186,0.00626,0.07941,0.03238
740,113346,38.21893,46.59847,52.16781,27.38682,-0.45131,2.29245,9.71567,0.00786,0.07901,0.03344
741,113499,38.27002,46.54738,52.16781,27.38682,-0.42138,2.29005,9.7444,0.00946,0.07821,0.03411
742,113655,38.27002,46.59847,52.16781,27.38682,-0.43814,2.31519,9.70131,0.00853,0.08007,0.03357
743,113808,38.27002,46.54738,52.16781,27.38682,-0.46926,2.30083,9.70609,0.00786,0.07941,0.03371
744,113961,38.27002,46.54738,52.16781,27.38682,-0.46807,2.28407,9.77553,0.00946,0.07781,0.03131
745,114114,38.21893,46.54738,52.16781,27.38682,-0.44891,2.27449,9.70729,0.00799,0.07767,0.03251
746,114267,38.21893,46.54738,52.16781,27.38682,-0.4537,2.27329,9.73363,0.00813,0.07861,0.03211
747,114423,38.21893,46.54738,52.16781,27.38682,-0.47525,2.28287,9.74679,0.00866,0.08034,0.03304
748,114576,38.27002,46.54738,52.16781,27.38682,-0.45131,2.29484,9.77313,0.00919,0.08114,0.03277
749,114729,38.21893,46.59847,52.16781,27.38682,-0.44412,2.25654,9.75996,0.00839,0.08034,0.03424
750,114882,38.27002,46.59847,52.16781,27.38682,-0.4549,2.24337,9.72644,0.01013,0.08087,0.03304
751,115038,38.21893,46.59847,52.16781,27.33573,-0.49081,2.30562,9.72046,0.00933,0.07834,0.03277
752,115191,38.21893,46.59847,52.16781,27.33573,-0.4549,2.26132,9.663,0.00986,0.08167,0.03198
753,115344,38.21893,46.59847,52.16781,27.33573,-0.4142,2.28886,9.73842,0.00866,0.07927,0.03411
754,115497,38.21893,46.59847,52.16781,27.33573,-0.43574,2.2709,9.75158,0.00893,0.08194,0.03571
755,115650,38.21893,46.59847,52.16781,27.33573,-0.43455,2.25414,9.73123,0.00919,0.07994,0.03251
756,115806,38.21893,46.59847,52.16781,27.38682,-0.43694,2.28048,9.71447,0.00933,0.07767,0.03357
757,115959,38.21893,46.59847,52.16781,27.33573,-0.47525,2.28167,9.8294,0.00759,0.081,0.03317
758,116112,38.21893,46.54738,52.16781,27.38682,-0.4537,2.24217,9.79947,0.00879,0.07767,0.03331
759,116265,38.21893,46.59847,52.16781,27.38682,-0.44652,2.27928,9.77792,0.00613,0.07927,0.03277
760,116418,38.21893,46.59847,52.16781,27.38682,-0.46807,2.28766,9.81982,0.00786,0.07941,0.03384
761,116574,38.21893,46.54738,52.16781,27.33573,-0.48004,2.29005,9.76355,0.00813,0.07967,0.03357
762,116727,38.27002,46.54738,52.16781,27.38682,-0.47046,2.31759,9.72405,0.01013,0.07834,0.03317
763,116880,38.21893,46.59847,52.16781,27.38682,-0.48004,2.25893,9.77553,0.00839,0.07981,0.03198
764,117033,38.21893,46.59847,52.16781,27.33573,-0.45969,2.2721,9.7025,0.00799,0.07767,0.03264
765,117186,38.21893,46.54738,52.16781,27.38682,-0.43694,2.2721,9.73961,0.00853,0.07794,0.03397
766,117352,38.21893,46.54738,52.16781,27.38682,-0.46328,2.29484,9.82221,0.00839,0.07927,0.03464
767,117503,38.21893,46.59847,52.16781,27.33573,-0.44532,2.26851,9.73123,0.00893,0.07941,0.03118
768,117655,38.27002,46.59847,52.16781,27.38682,-0.47046,2.28287,9.77433,0.00813,0.07767,0.03411
769,117807,38.21893,46.59847,52.16781,27.38682,-0.44532,2.3116,9.67736,0.00799,0.07634,0.03371
770,117962,38.21893,46.59847,52.16781,27.38682,-0.40701,2.29005,9.68095,0.00853,0.07847,0.03331
771,118114,38.27002,46.54738,52.16781,27.38682,-0.42737,2.26372,9.73123,0.00866,0.07847,0.03118
772,118266,38.21893,46.59847,52.16781,27.33573,-0.43934,2.28886,9.75039,0.00959,0.08154,0.03397
773,118418,38.21893,46.54738,52.16781,27.38682,-0.44772,2.28048,9.78869,0.00839,0.081,0.03211
774,118570,38.21893,46.59847,52.16781,27.33573,-0.45729,2.2302,9.77553,0.00919,0.07807,0.03437
775,118725,38.27002,46.54738,52.11671,27.38682,-0.44652,2.29365,9.76834,0.00813,0.07847,0.03277
776,118877,38.21893,46.54738,52.16781,27.38682,-0.43215,2.2697,9.71447,0.01026,0.07861,0.03371
777,119037,38.21893,46.59847,52.16781,27.38682,-0.43574,2.26372,9.7456,0.00866,0.07994,0.03211
778,119189,38.27002,46.54738,52.16781,27.38682,-0.41659,2.26611,9.72525,0.00826,0.08074,0.03184
779,119341,38.21893,46.54738,52.16781,27.38682,-0.47166,2.24696,9.74919,0.00786,0.07981,0.03251
780,119496,38.21893,46.59847,52.16781,27.33573,-0.47525,2.26731,9.72644,0.00906,0.0818,0.03264
781,119648,38.27002,46.54738,52.16781,27.38682,-0.413,2.27569,9.73363,0.00746,0.07874,0.03451
782,119800,38.21893,46.59847,52.16781,27.33573,-0.45011,2.27689,9.75278,0.00693,0.07901,0.03264
783,119952,38.21893,46.54738,52.16781,27.38682,-0.42976,2.26252,9.75877,0.01013,0.07807,0.03304
784,120104,38.21893,46.59847,52.16781,27.33573,-0.46567,2.24337,9.79827,0.00906,0.08207,0.03118
785,120259,38.27002,46.54738,52.16781,27.38682,-0.45729,2.26731,9.76834,0.00866,0.08034,0.03344
786,120411,38.27002,46.54738,52.16781,27.38682,-0.46687,2.28287,9.74081,0.00893,0.07767,0.03384
787,120563,38.21893,46.59847,52.16781,27.33573,-0.42976,2.28527,9.73602,0.00866,0.07887,0.03584
788,120715,38.21893,46.54738,52.16781,27.38682,-0.4537,2.29005,9.75158,0.00826,0.08074,0.03451
789,120870,38.21893,46.59847,52.16781,27.33573,-0.43096,2.26013,9.76236,0.00973,0.07927,0.03331
790,121022,38.27002,46.54738,52.16781,27.38682,-0.4537,2.29005,9.77074,0.01053,0.07754,0.03198
791,121174,38.21893,46.59847,52.21891,27.38682,-0.44652,2.27689,9.75398,0.00919,0.08127,0.03464
792,121326,38.21893,46.59847,52.16781,27.33573,-0.42258,2.3104,9.76595,0.00826,0.07821,0.03304
793,121478,38.21893,46.54738,52.16781,27.33573,-0.41061,2.2721,9.73602,0.00786,0.08074,0.03224
794,121633,38.21893,46.59847,52.16781,27.38682,-0.41659,2.29724,9.75517,0.00853,0.07981,0.03531
795,121785,38.21893,46.59847,52.16781,27.33573,-0.44053,2.28886,9.77912,0.00879,0.08007,0.03238
796,121937,38.21893,46.54738,52.16781,27.38682,-0.40941,2.30921,9.7037,0.00759,0.08114,0.03264
797,122089,38.21893,46.59847,52.16781,27.38682,-0.44293,2.26013,9.78151,0.00986,0.08034,0.03451
798,122241,38.21893,46.59847,52.16781,27.38682,-0.44772,2.28527,9.77313,0.00813,0.07794,0.03224
799,122396,38.21893,46.59847,52.16781,27.38682,-0.4525,2.28646,9.6642,0.00853,0.07954,0.03451
800,122548,38.27002,46.59847,52.16781,27.38682,-0.46208,2.26252,9.70609,0.00799,0.08007,0.03344
801,122700,38.21893,46.59847,52.16781,27.38682,-0.47645,2.25893,9.78869,0.00933,0.08021,0.03357
802,122852,38.21893,46.54738,52.11671,27.38682,-0.45131,2.2302,9.73482,0.00786,0.07887,0.03371
803,123004,38.27002,46.54738,52.16781,27.38682,-0.42138,2.25893,9.81383,0.00933,0.07901,0.03291
804,123168,38.27002,46.54738,52.11671,27.38682,-0.43694,2.25773,9.74799,0.00879,0.07821,0.03371
805,123320,38.21893,46.59847,52.16781,27.38682,-0.46807,2.26611,9.72884,0.00813,0.07901,0.03291
806,123472,38.27002,46.54738,52.16781,27.38682,-0.43694,2.27928,9.77912,0.00919,0.07927,0.03277
807,123624,38.21893,46.54738,52.16781,27.38682,-0.4525,2.29843,9.72525,0.00826,0.07874,0.03317
808,123780,38.21893,46.54738,52.16781,27.38682,-0.48602,2.27329,9.72884,0.00879,0.07967,0.03437
809,123933,38.21893,46.54738,52.21891,27.33573,-0.4956,2.25294,9.75278,0.00893,0.07901,0.03411
810,124086,38.21893,46.54738,52.16781,27.38682,-0.4561,2.29005,9.78031,0.00866,0.08074,0.03184
811,124239,38.27002,46.54738,52.16781,27.38682,-0.39504,2.29125,9.65582,0.00693,0.07941,0.03251
812,124392,38.21893,46.54738,52.16781,27.38682,-0.46926,2.23738,9.76116,0.0052,0.07541,0.03211
813,124548,38.21893,46.59847,52.16781,27.38682,-0.49081,2.32118,9.66898,0.00679,0.07674,0.03224
814,124701,38.21893,46.54738,52.16781,27.38682,-0.4944,2.23259,9.73004,0.00866,0.07807,0.03384
815,124854,38.21893,46.59847,52.16781,27.38682,-0.45729,2.29365,9.77433,0.00879,0.07954,0.03357
816,125007,38.21893,46.54738,52.16781,27.38682,-0.46328,2.31519,9.72285,0.00679,0.07981,0.03331
817,125160,38.21893,46.59847,52.16781,27.33573,-0.4549,2.3104,9.79468,0.00933,0.07994,0.03184
818,125316,38.21893,46.54738,52.16781,27.38682,-0.4537,2.20506,9.72884,0.00919,0.07874,0.03304
819,125469,38.27002,46.54738,52.16781,27.38682,-0.48004,2.22661,9.75637,0.00853,0.07914,0.03371
820,125622,38.21893,46.54738,52.16781,27.38682,-0.44772,2.22541,9.79707,0.00919,0.07927,0.03264
821,125775,38.21893,46.54738,52.16781,27.38682,-0.46088,2.26252,9.73123,0.00986,0.08047,0.03424
822,125928,38.21893,46.54738,52.16781,27.38682,-0.44772,2.24217,9.71687,0.00879,0.07887,0.03264
823,126084,38.21893,46.59847,52.16781,27.38682,-0.39265,2.28766,9.71088,0.00919,0.07927,0.03477
824,126237,38.21893,46.54738,52.21891,27.38682,-0.48483,2.2721,9.76116,0.00799,0.07874,0.03357
825,126390,38.21893,46.59847,52.16781,27.33573,-0.47525,2.29125,9.68814,0.00626,0.07794,0.03291
826,126543,38.21893,46.54738,52.16781,27.38682,-0.47405,2.26611,9.72884,0.00933,0.07914,0.03277
827,126699,38.27002,46.59847,52.16781,27.33573,-0.40701,2.2709,9.76116,0.00893,0.07834,0.03331
828,126852,38.21893,46.59847,52.16781,27.38682,-0.43814,2.30921,9.76715,0.00893,0.07754,0.03184
829,127005,38.21893,46.54738,52.16781,27.38682,-0.45011,2.30681,9.73722,0.00866,0.08034,0.03144
830,127158,38.21893,46.59847,52.16781,27.38682,-0.44891,2.32357,9.73243,0.00853,0.07967,0.03331
831,127311,38.21893,46.59847,52.16781,27.38682,-0.44173,2.29005,9.76715,0.00706,0.08074,0.03344
832,127467,38.21893,46.54738,52.16781,27.38682,-0.42377,2.29484,9.75158,0.00986,0.07847,0.03357
833,127620,38.27002,46.54738,52.16781,27.38682,-0.46448,2.29724,9.77313,0.00906,0.07754,0.03331
834,127773,38.27002,46.54738,52.16781,27.38682,-0.47525,2.24576,9.79228,0.00866,0.07914,0.03224
835,127926,38.27002,46.54738,52.16781,27.38682,-0.45011,2.25893,9.76715,0.00866,0.08007,0.03211
836,128079,38.21893,46.54738,52.16781,27.38682,-0.45011,2.27329,9.76236,0.00946,0.07954,0.03224
837,128235,38.21893,46.54738,52.16781,27.38682,-0.47764,2.28407,9.75637,0.00813,0.08007,0.03331
838,128387,38.21893,46.59847,52.16781,27.33573,-0.44293,2.27808,9.77074,0.00933,0.07834,0.03277
839,128539,38.21893,46.59847,52.16781,27.38682,-0.45849,2.28766,9.75996,0.00733,0.08074,0.03357
840,128692,38.27002,46.59847,52.16781,27.33573,-0.45729,2.24696,9.70849,0.00973,0.07887,0.03251
841,128844,38.21893,46.59847,52.11671,27.38682,-0.43455,2.30083,9.68933,0.00786,0.07927,0.03264
842,129010,38.27002,46.59847,52.16781,27.38682,-0.38547,2.29724,9.73961,0.00799,0.07887,0.03411
843,129163,38.21893,46.54738,52.16781,27.38682,-0.45011,2.26611,9.74919,0.00733,0.07927,0.03277
844,129316,38.21893,46.54738,52.16781,27.38682,-0.4537,2.27569,9.71088,0.00813,0.07901,0.03304
845,129469,38.21893,46.54738,52.16781,27.38682,-0.42856,2.28287,9.73722,0.00826,0.07994,0.03078
846,129625,38.21893,46.54738,52.16781,27.38682,-0.47525,2.26491,9.72525,0.00973,0.07994,0.03277
847,129778,38.21893,46.64957,52.16781,27.33573,-0.4537,2.26731,9.78151,0.00853,0.07834,0.03411
848,129931,38.21893,46.54738,52.16781,27.38682,-0.45131,2.24456,9.77792,0.00973,0.0806,0.03211
849,130084,38.27002,46.59847,52.16781,27.38682,-0.4956,2.29484,9.75398,0.00733,0.07967,0.03384
850,130237,38.27002,46.59847,52.16781,27.33573,-0.4525,2.25055,9.7025,0.00839,0.07847,0.03317
851,130393,38.27002,46.59847,52.16781,27.33573,-0.46448,2.28287,9.73123,0.00853,0.07887,0.03291
852,130546,38.21893,46.59847,52.16781,27.38682,-0.46448,2.26851,9.75398,0.00746,0.08114,0.03384
853,130699,38.27002,46.54738,52.16781,27.38682,-0.41899,2.24456,9.74919,0.00719,0.08021,0.03211
854,130852,38.21893,46.59847,52.16781,27.33573,-0.46687,2.28167,9.72884,0.00879,0.07967,0.03397
855,131005,38.21893,46.59847,52.16781,27.33573,-0.45729,2.27449,9.7444,0.00893,0.07967,0.03277
856,131161,38.27002,46.59847,52.16781,27.38682,-0.44412,2.29005,9.74679,0.00973,0.07967,0.03317
857,131314,38.27002,46.54738,52.16781,27.38682,-0.43934,2.29365,9.7025,0.00919,0.07861,0.03198
858,131467,38.21893,46.59847,52.16781,27.33573,-0.43694,2.29843,9.76595,0.00946,0.08007,0.03371
859,131620,38.21893,46.59847,52.16781,27.38682,-0.4549,2.2709,9.75757,0.00879,0.08074,0.03344
860,131773,38.21893,46.59847,52.16781,27.33573,-0.45011,2.26132,9.73004,0.00813,0.07914,0.03211
861,131929,38.21893,46.54738,52.16781,27.38682,-0.45131,2.27449,9.77074,0.00959,0.08074,0.03411
862,132082,38.21893,46.59847,52.16781,27.33573,-0.44293,2.28766,9.74799,0.00879,0.07927,0.03384
863,132235,38.21893,46.59847,52.16781,27.38682,-0.413,2.22661,9.73722,0.00906,0.07941,0.03331
864,132388,38.21893,46.54738,52.16781,27.38682,-0.46328,2.23499,9.75996,0.00773,0.08021,0.03357
865,132544,38.27002,46.54738,52.16781,27.38682,-0.48363,2.28886,9.75637,0.00839,0.07941,0.03131
866,132697,38.21893,46.54738,52.16781,27.33573,-0.47405,2.24217,9.75158,0.00813,0.07847,0.03344
867,132850,38.21893,46.54738,52.16781,27.38682,-0.43934,2.25773,9.75757,0.00933,0.08114,0.03371
868,133003,38.27002,46.59847,52.16781,27.38682,-0.46328,2.25175,9.77672,0.01026,0.07901,0.03464
869,133156,38.27002,46.54738,52.16781,27.38682,-0.4549,2.27329,9.71447,0.00919,0.08087,0.03371
870,133312,38.27002,46.54738,52.16781,27.38682,-0.4549,2.28886,9.76954,0.00986,0.07967,0.03451
871,133465,38.27002,46.59847,52.16781,27.38682,-0.43215,2.25773,9.73004,0.00866,0.07874,0.03331
872,133618,38.21893,46.54738,52.16781,27.33573,-0.46208,2.28167,9.70849,0.00799,0.08021,0.03331
873,133771,38.21893,46.54738,52.16781,27.38682,-0.48602,2.27808,9.73842,0.00879,0.07887,0.03264
874,133924,38.27002,46.54738,52.16781,27.38682,-0.46328,2.25893,9.75158,0.00759,0.07954,0.03344
875,134080,38.27002,46.54738,52.16781,27.38682,-0.45969,2.29484,9.73243,0.00893,0.0806,0.03224
876,134233,38.21893,46.59847,52.16781,27.38682,-0.46448,2.27449,9.76236,0.00759,0.08034,0.03104
877,134386,38.21893,46.59847,52.16781,27.38682,-0.43934,2.28287,9.68095,0.00839,0.08087,0.03331
878,134539,38.27002,46.54738,52.16781,27.38682,-0.46567,2.27808,9.74799,0.00866,0.07901,0.03251
879,134705,38.21893,46.59847,52.16781,27.38682,-0.43694,2.2302,9.77433,0.00773,0.07994,0.03344
880,134856,38.21893,46.59847,52.16781,27.33573,-0.48243,2.25773,9.75996,0.00813,0.07954,0.03277
881,135008,38.21893,46.59847,52.16781,27.38682,-0.43694,2.25654,9.78031,0.00879,0.07901,0.03371
882,135160,38.21893,46.59847,52.16781,27.33573,-0.43335,2.30921,9.73243,0.01092,0.07874,0.03464
883,135312,38.21893,46.54738,52.16781,27.38682,-0.43215,2.28646,9.71328,0.00893,0.07927,0.03317
884,135467,38.21893,46.54738,52.16781,27.38682,-0.45011,2.28287,9.78271,0.00919,0.07981,0.03264
885,135619,38.21893,46.59847,52.11671,27.33573,-0.45849,2.26611,9.70011,0.00626,0.07941,0.03371
886,135771,38.21893,46.54738,52.16781,27.38682,-0.47764,2.27808,9.75517,0.00786,0.08087,0.03317
887,135923,38.21893,46.59847,52.16781,27.33573,-0.42138,2.25654,9.78989,0.00853,0.07994,0.03224
888,136075,38.27002,46.54738,52.16781,27.38682,-0.41539,2.2721,9.79228,0.00879,0.07927,0.03371
889,136230,38.21893,46.59847,52.16781,27.33573,-0.47166,2.27928,9.69771,0.00679,0.08021,0.03264
890,136390,38.27002,46.59847,52.16781,27.38682,-0.48004,2.28407,9.7875,0.00959,0.07941,0.03397
891,136542,38.21893,46.64957,52.16781,27.33573,-0.41061,2.24696,9.77553,0.00813,0.07874,0.03357
892,136694,38.27002,46.54738,52.16781,27.38682,-0.44293,2.29125,9.78391,0.01053,0.081,0.03238
893,136846,38.21893,46.54738,52.16781,27.38682,-0.42497,2.26491,9.74081,0.00893,0.07967,0.03224
894,137001,38.21893,46.54738,52.16781,27.38682,-0.42976,2.27808,9.71687,0.00906,0.08074,0.03437
895,137153,38.21893,46.59847,52.16781,27.33573,-0.4525,2.24696,9.72525,0.00906,0.07901,0.03451
896,137305,38.27002,46.54738,52.11671,27.38682,-0.41659,2.2314,9.79588,0.00906,0.07834,0.03317
897,137457,38.27002,46.54738,52.16781,27.38682,-0.4549,2.30202,9.75637,0.00786,0.07954,0.03277
898,137612,38.21893,46.59847,52.16781,27.38682,-0.4537,2.25893,9.75517,0.00813,0.07927,0.03184
899,137764,38.27002,46.59847,52.16781,27.33573,-0.41659,2.27928,9.76355,0.00879,0.07794,0.03264
900,137916,38.21893,46.54738,52.16781,27.38682,-0.44293,2.26132,9.72525,0.00919,0.08021,0.03344
901,138068,38.21893,46.54738,52.16781,27.38682,-0.47525,2.26252,9.78271,0.00853,0.07821,0.03291
902,138220,38.21893,46.54738,52.16781,27.38682,-0.42856,2.25294,9.72644,0.00893,0.07941,0.03344
903,138375,38.21893,46.54738,52.16781,27.38682,-0.46687,2.29125,9.79707,0.00786,0.07954,0.03357
904,138527,38.21893,46.54738,52.16781,27.43792,-0.45729,2.29484,9.77193,0.00839,0.07914,0.03264
905,138679,38.21893,46.54738,52.16781,27.38682,-0.4549,2.29843,9.73722,0.00813,0.07847,0.03384
906,138831,38.21893,46.54738,52.16781,27.38682,-0.47046,2.25294,9.76116,0.00826,0.07927,0.03158
907,138983,38.21893,46.59847,52.16781,27.33573,-0.48243,2.29005,9.7025,0.01026,0.07927,0.03357
908,139138,38.21893,46.59847,52.16781,27.38682,-0.47166,2.29843,9.79348,0.00853,0.08007,0.03291
909,139290,38.27002,46.59847,52.16781,27.33573,-0.47764,2.24696,9.67377,0.00786,0.07981,0.03357
910,139442,38.21893,46.59847,52.16781,27.38682,-0.46687,2.28167,9.7432,0.00839,0.07981,0.03251
911,139594,38.21893,46.54738,52.16781,27.38682,-0.44293,2.26731,9.74919,0.00759,0.08087,0.03238
912,139746,38.21893,46.59847,52.16781,27.33573,-0.44412,2.28646,9.73602,0.00733,0.07954,0.03344
913,139901,38.21893,46.59847,52.16781,27.33573,-0.46687,2.28048,9.7432,0.00999,0.08047,0.03571
914,140053,38.21893,46.59847,52.16781,27.38682,-0.46208,2.26731,9.72884,0.00813,0.0806,0.03198
915,140205,38.21893,46.54738,52.16781,27.38682,-0.47166,2.2709,9.74201,0.00773,0.07834,0.03384
916,140357,38.27002,46.59847,52.16781,27.38682,-0.45849,2.28048,9.7432,0.00853,0.07767,0.03304
917,140521,38.27002,46.54738,52.16781,27.38682,-0.44412,2.28048,9.77193,0.00826,0.07994,0.03397
918,140674,38.21893,46.59847,52.16781,27.38682,-0.4525,2.25534,9.75996,0.00973,0.08034,0.03357
919,140826,38.27002,46.59847,52.16781,27.33573,-0.47046,2.24816,9.71447,0.00839,0.08021,0.03344
920,140978,38.21893,46.59847,52.16781,27.38682,-0.47405,2.24576,9.78151,0.00853,0.07821,0.03397
921,141131,38.21893,46.59847,52.21891,27.38682,-0.4537,2.26372,9.73363,0.00906,0.07901,0.03251
922,141287,38.27002,46.59847,52.16781,27.38682,-0.44532,2.2709,9.72046,0.00839,0.07741,0.03251
923,141440,38.21893,46.59847,52.16781,27.33573,-0.44293,2.29005,9.74201,0.00653,0.08167,0.03198
924,141593,38.21893,46.59847,52.16781,27.38682,-0.46807,2.28048,9.78031,0.00773,0.08034,0.03384
925,141746,38.21893,46.54738,52.16781,27.38682,-0.45969,2.3128,9.72285,0.00946,0.07861,0.03371
926,141899,38.21893,46.59847,52.16781,27.33573,-0.47046,2.28407,9.71567,0.00866,0.08087,0.03317
927,142055,38.21893,46.59847,52.16781,27.33573,-0.47645,2.24576,9.76475,0.00759,0.07887,0.03411
928,142208,38.21893,46.59847,52.16781,27.33573,-0.48961,2.25294,9.76954,0.00933,0.0806,0.03198
929,142361,38.21893,46.59847,52.16781,27.38682,-0.46208,2.29365,9.79348,0.00959,0.08007,0.03371
930,142514,38.21893,46.59847,52.16781,27.38682,-0.41539,2.32477,9.73004,0.00893,0.07847,0.03304
931,142667,38.27002,46.59847,52.11671,27.38682,-0.413,2.26252,9.67736,0.00839,0.07741,0.03424
932,142823,38.27002,46.54738,52.16781,27.38682,-0.42018,2.27449,9.78151,0.00759,0.07821,0.03331
933,142976,38.27002,46.54738,52.16781,27.38682,-0.45131,2.26013,9.76595,0.00893,0.08047,0.03517
934,143129,38.21893,46.54738,52.16781,27.38682,-0.47166,2.29604,9.74081,0.00799,0.07941,0.03251
935,143282,38.21893,46.54738,52.16781,27.38682,-0.43694,2.26132,9.75637,0.00813,0.07901,0.03331
936,143438,38.21893,46.59847,52.16781,27.33573,-0.42138,2.26252,9.77792,0.00933,0.07861,0.03344
937,143591,38.27002,46.59847,52.11671,27.38682,-0.42018,2.29604,9.74919,0.00946,0.07887,0.03397
938,143744,38.21893,46.59847,52.16781,27.33573,-0.42138,2.2697,9.71926,0.00853,0.07901,0.03198
939,143897,38.21893,46.59847,52.16781,27.38682,-0.43574,2.26372,9.75039,0.00866,0.08087,0.03331
940,144050,38.21893,46.59847,52.16781,27.38682,-0.47405,2.27928,9.72764,0.00853,0.07861,0.03238
941,144206,38.21893,46.59847,52.16781,27.38682,-0.46208,2.26372,9.73961,0.00973,0.07834,0.03264
942,144359,38.27002,46.54738,52.16781,27.33573,-0.46328,2.27808,9.7049,0.00839,0.08047,0.03317
943,144512,38.27002,46.59847,52.16781,27.38682,-0.45969,2.2709,9.7444,0.00826,0.0814,0.03451
944,144665,38.27002,46.59847,52.11671,27.38682,-0.43934,2.2278,9.69173,0.00786,0.07834,0.03357
945,144818,38.21893,46.59847,52.16781,27.33573,-0.43574,2.27808,9.73363,0.00866,0.07781,0.03304
946,144974,38.21893,46.54738,52.16781,27.33573,-0.42976,2.26851,9.70849,0.00773,0.07901,0.03371
947,145127,38.21893,46.59847,52.16781,27.38682,-0.44173,2.28167,9.71328,0.00746,0.07927,0.03198
948,145280,38.21893,46.59847,52.16781,27.38682,-0.44293,2.25294,9.75158,0.00853,0.07847,0.03424
949,145433,38.21893,46.54738,52.16781,27.38682,-0.43215,2.27689,9.83299,0.00826,0.07874,0.03224
950,145586,38.21893,46.59847,52.16781,27.38682,-0.46328,2.28646,9.75039,0.00946,0.07861,0.03317
951,145742,38.27002,46.54738,52.16781,27.38682,-0.40342,2.29125,9.75278,0.00893,0.07914,0.03277
952,145895,38.21893,46.59847,52.16781,27.38682,-0.46328,2.29604,9.78989,0.01013,0.07967,0.03264
953,146048,38.21893,46.59847,52.16781,27.33573,-0.43934,2.27329,9.7875,0.00893,0.07821,0.03224
954,146200,38.21893,46.59847,52.16781,27.38682,-0.42617,2.27449,9.74799,0.00853,0.07887,0.03251
955,146366,38.21893,46.59847,52.16781,27.38682,-0.43335,2.23379,9.77912,0.00839,0.0806,0.03371
956,146519,38.21893,46.59847,52.16781,27.38682,-0.43694,2.24935,9.73123,0.00799,0.07821,0.03238
957,146672,38.27002,46.54738,52.16781,27.38682,-0.45729,2.24097,9.7851,0.00959,0.07927,0.03344
958,146825,38.21893,46.54738,52.16781,27.38682,-0.45849,2.2721,9.73961,0.00893,0.07807,0.03344
959,146978,38.21893,46.54738,52.16781,27.38682,-0.39385,2.2697,9.7851,0.00786,0.07901,0.03451
960,147134,38.21893,46.59847,52.16781,27.38682,-0.46328,2.24097,9.74081,0.00866,0.08034,0.03357
961,147287,38.27002,46.59847,52.11671,27.38682,-0.44293,2.25893,9.69532,0.00653,0.07847,0.03291
962,147440,38.27002,46.59847,52.16781,27.33573,-0.46208,2.27569,9.76834,0.00946,0.07967,0.03291
963,147593,38.21893,46.54738,52.16781,27.38682,-0.42976,2.26731,9.75398,0.00999,0.08047,0.03331
964,147746,38.27002,46.59847,52.16781,27.38682,-0.44173,2.26132,9.71328,0.00853,0.07954,0.03331
965,147902,38.27002,46.54738,52.16781,27.38682,-0.46448,2.27569,9.75158,0.00999,0.07954,0.03344
966,148055,38.21893,46.59847,52.16781,27.38682,-0.42018,2.26372,9.78271,0.01013,0.07967,0.03344
967,148208,38.21893,46.59847,52.21891,27.38682,-0.43694,2.28407,9.75158,0.00906,0.08021,0.03158
968,148361,38.27002,46.59847,52.21891,27.33573,-0.4549,2.29484,9.75158,0.00973,0.07967,0.03304
969,148514,38.27002,46.59847,52.16781,27.38682,-0.44173,2.29963,9.72764,0.00866,0.07887,0.03317
970,148670,38.27002,46.59847,52.16781,27.33573,-0.44053,2.32716,9.75996,0.00759,0.07927,0.03331
971,148823,38.21893,46.59847,52.16781,27.33573,-0.48123,2.27329,9.7456,0.00906,0.07794,0.03291
972,148976,38.27002,46.59847,52.16781,27.38682,-0.46088,2.26372,9.75637,0.01013,0.08034,0.03091
973,149129,38.21893,46.54738,52.16781,27.38682,-0.43934,2.26013,9.74919,0.00826,0.07874,0.03344
974,149285,38.21893,46.54738,52.16781,27.38682,-0.48961,2.26731,9.78391,0.00839,0.07847,0.03357
975,149438,38.21893,46.59847,52.16781,27.38682,-0.42617,2.26851,9.74081,0.00799,0.08087,0.03344
976,149591,38.21893,46.54738,52.16781,27.38682,-0.43814,2.3104,9.76475,0.00893,0.08047,0.03437
977,149744,38.21893,46.59847,52.16781,27.38682,-0.45969,2.25893,9.75517,0.00879,0.0806,0.03264
978,149897,38.21893,46.59847,52.16781,27.33573,-0.45729,2.27449,9.72405,0.00786,0.07887,0.03317
979,150053,38.21893,46.54738,52.16781,27.38682,-0.43574,2.29005,9.74919,0.00746,0.07954,0.03238
980,150206,38.27002,46.54738,52.16781,27.33573,-0.44891,2.28048,9.73363,0.00946,0.07994,0.03277
981,150359,38.21893,46.59847,52.16781,27.38682,-0.43335,2.29843,9.75877,0.00839,0.08047,0.03291
982,150512,38.21893,46.54738,52.16781,27.38682,-0.4525,2.27569,9.76715,0.00919,0.07994,0.03411
983,150665,38.21893,46.59847,52.16781,27.33573,-0.43335,2.26013,9.76595,0.00786,0.07981,0.03424
984,150821,38.21893,46.54738,52.16781,27.38682,-0.45849,2.25654,9.77193,0.00839,0.07967,0.03198
985,150974,38.21893,46.59847,52.16781,27.38682,-0.42377,2.25534,9.78989,0.00813,0.0806,0.03411
986,151127,38.21893,46.54738,52.16781,27.38682,-0.4549,2.27928,9.74679,0.00919,0.08114,0.03251
987,151280,38.21893,46.59847,52.16781,27.33573,-0.46208,2.25773,9.7432,0.00946,0.08007,0.03264
988,151433,38.21893,46.59847,52.16781,27.38682,-0.46328,2.25175,9.75517,0.00879,0.07994,0.03384
989,151589,38.21893,46.59847,52.16781,27.38682,-0.48722,2.27329,9.76715,0.00919,0.07941,0.03277
990,151742,38.21893,46.59847,52.16781,27.33573,-0.47285,2.24696,9.75996,0.00786,0.08021,0.03344
991,151895,38.21893,46.54738,52.16781,27.33573,-0.43694,2.28167,9.7025,0.00879,0.07887,0.03371
992,152048,38.21893,46.54738,52.16781,27.38682,-0.46926,2.26372,9.76116,0.00853,0.07821,0.03317
993,152214,38.27002,46.54738,52.16781,27.33573,-0.42018,2.2709,9.77912,0.00853,0.07874,0.03371
994,152365,38.21893,46.54738,52.16781,27.38682,-0.44173,2.27449,9.73482,0.00919,0.07901,0.03264
995,152517,38.21893,46.59847,52.16781,27.38682,-0.46208,2.26491,9.77553,0.00893,0.081,0.03331
996,152669,38.21893,46.59847,52.16781,27.38682,-0.42377,2.25294,9.80426,0.00946,0.08007,0.03277
997,152821,38.21893,46.59847,52.16781,27.33573,-0.4537,2.30322,9.75158,0.00973,0.07847,0.03304
998,152976,38.21893,46.59847,52.16781,27.38682,-0.43455,2.27329,9.73482,0.00906,0.07927,0.03344
999,153128,38.21893,46.59847,52.16781,27.33573,-0.44772,2.24217,9.78391,0.00893,0.07874,0.03238
1000,153280,38.27002,46.54738,52.16781,27.38682,-0.42737,2.28287,9.7049,0.00759,0.08074,0.03211
1001,153433,38.21893,46.59847,52.16781,27.38682,-0.43934,2.25773,9.74919,0.00839,0.07967,0.03331
1002,153586,38.27002,46.59847,52.16781,27.38682,-0.46567,2.25893,9.77433,0.00813,0.08074,0.03464
1003,153750,38.21893,46.59847,52.16781,27.33573,-0.47285,2.24696,9.76954,0.01026,0.0806,0.03344
1004,153903,38.27002,46.59847,52.16781,27.38682,-0.46926,2.27329,9.73961,0.00759,0.07767,0.03371
1005,154056,38.21893,46.59847,52.16781,27.33573,-0.413,2.28048,9.76236,0.00759,0.07741,0.03331
1006,154209,38.21893,46.59847,52.16781,27.38682,-0.45969,2.24696,9.72764,0.00719,0.07807,0.03224
1007,154365,38.27002,46.54738,52.16781,27.38682,-0.42018,2.26013,9.75757,0.01026,0.07741,0.03184
1008,154518,38.21893,46.59847,52.16781,27.38682,-0.43215,2.27569,9.73482,0.00959,0.08047,0.03344
1009,154671,38.21893,46.59847,52.16781,27.38682,-0.42976,2.29245,9.72166,0.00999,0.08087,0.03451
1010,154824,38.21893,46.54738,52.16781,27.38682,-0.44173,2.27808,9.77074,0.00746,0.07914,0.03277
1011,154977,38.21893,46.54738,52.16781,27.38682,-0.47046,2.24337,9.73243,0.00706,0.07874,0.03304
1012,155133,38.27002,46.54738,52.16781,27.38682,-0.43814,2.27329,9.76595,0.00906,0.07861,0.03371
1013,155286,38.21893,46.59847,52.16781,27.38682,-0.43814,2.27569,9.79109,0.01066,0.07807,0.03251
1014,155439,38.21893,46.54738,52.16781,27.38682,-0.45011,2.24935,9.7432,0.00759,0.07901,0.03304
1015,155592,38.21893,46.59847,52.16781,27.38682,-0.42976,2.26491,9.75158,0.00826,0.07994,0.03411
1016,155745,38.27002,46.54738,52.16781,27.38682,-0.46807,2.28766,9.76236,0.00933,0.07914,0.03357
1017,155901,38.27002,46.59847,52.16781,27.33573,-0.47525,2.29005,9.78869,0.00946,0.08034,0.03277
1018,156054,38.27002,46.54738,52.16781,27.38682,-0.44053,2.29724,9.76595,0.00906,0.07927,0.03291
1019,156207,38.27002,46.54738,52.16781,27.38682,-0.43934,2.24576,9.74679,0.00826,0.07927,0.03331
1020,156360,38.27002,46.54738,52.16781,27.38682,-0.44293,2.26851,9.73961,0.00893,0.07901,0.03251
1021,156513,38.21893,46.54738,52.16781,27.33573,-0.44532,2.26372,9.75996,0.00773,0.07981,0.03437
1022,156669,38.21893,46.54738,52.16781,27.38682,-0.45849,2.28407,9.80426,0.00853,0.07901,0.03291
1023,156822,38.21893,46.54738,52.16781,27.38682,-0.46807,2.3116,9.70849,0.00799,0.07941,0.03451
1024,156975,38.21893,46.54738,52.16781,27.38682,-0.46088,2.27449,9.73961,0.00839,0.07807,0.03317
1025,157128,38.21893,46.59847,52.16781,27.38682,-0.43335,2.29245,9.75996,0.00746,0.07981,0.03344
1026,157284,38.21893,46.54738,52.16781,27.38682,-0.46328,2.25175,9.7456,0.00879,0.07781,0.03224
1027,157437,38.21893,46.59847,52.16781,27.33573,-0.42617,2.26372,9.73482,0.00706,0.07807,0.03251
1028,157590,38.27002,46.54738,52.11671,27.38682,-0.4956,2.2709,9.75158,0.00946,0.07981,0.03344
1029,157743,38.27002,46.54738,52.16781,27.38682,-0.46926,2.25534,9.75158,0.00839,0.08034,0.03411
1030,157896,38.21893,46.59847,52.16781,27.38682,-0.48123,2.25893,9.73842,0.00786,0.07994,0.03451
1031,158061,38.21893,46.59847,52.16781,27.38682,-0.46208,2.26252,9.79588,0.00906,0.07981,0.03344
1032,158215,38.21893,46.59847,52.16781,27.28463,-0.46328,2.26372,9.71208,0.00853,0.08167,0.03317
1033,158369,38.21893,46.59847,52.16781,27.38682,-0.41659,2.26491,9.72644,0.00933,0.07941,0.03357
1034,158523,38.21893,46.59847,52.16781,27.38682,-0.44652,2.27449,9.7851,0.00946,0.07767,0.03437
1035,158677,38.21893,46.54738,52.16781,27.33573,-0.41539,2.29724,9.68215,0.00853,0.07674,0.03357
1036,158834,38.21893,46.59847,52.16781,27.38682,-0.43694,2.2697,9.78271,0.00679,0.07901,0.03291
1037,158988,38.21893,46.59847,52.16781,27.33573,-0.47764,2.29484,9.7444,0.00973,0.07847,0.03397
1038,159142,38.21893,46.54738,52.16781,27.38682,-0.40342,2.26252,9.79588,0.00919,0.07834,0.03264
1039,159296,38.21893,46.49628,52.16781,27.38682,-0.38307,2.26252,9.70729,0.00813,0.07981,0.03371
1040,159453,38.21893,46.59847,52.16781,27.38682,-0.39504,2.3116,9.75398,0.00906,0.07941,0.03317
1041,159607,38.21893,46.59847,52.16781,27.38682,-0.42737,2.27689,9.78989,0.00839,0.07914,0.03264
1042,159761,38.21893,46.54738,52.16781,27.38682,-0.44772,2.29843,9.7049,0.00853,0.08007,0.03251
1043,159915,38.21893,46.59847,52.16781,27.38682,-0.4549,2.28766,9.75757,0.01013,0.07954,0.03238
1044,160069,38.21893,46.59847,52.16781,27.38682,-0.4549,2.26132,9.74799,0.00773,0.08074,0.03317
1045,160226,38.27002,46.54738,52.16781,27.38682,-0.45011,2.29365,9.73842,0.00919,0.08034,0.03357
1046,160380,38.21893,46.59847,52.16781,27.33573,-0.45969,2.33435,9.7456,0.00759,0.07781,0.03317
1047,160534,38.21893,46.59847,52.16781,27.38682,-0.46208,2.26132,9.71447,0.00919,0.07821,0.03384
1048,160688,38.21893,46.59847,52.16781,27.38682,-0.48363,2.28886,9.75637,0.00866,0.0814,0.03238
1049,160842,38.21893,46.59847,52.16781,27.38682,-0.45011,2.27928,9.76116,0.00826,0.07834,0.03224
1050,160999,38.21893,46.59847,52.16781,27.38682,-0.42018,2.28766,9.79109,0.00826,0.07941,0.03317
1051,161153,38.27002,46.54738,52.16781,27.38682,-0.4537,2.24097,9.77313,0.00973,0.07861,0.03224
1052,161307,38.21893,46.59847,52.16781,27.38682,-0.42976,2.31639,9.73123,0.00879,0.07807,0.03331
1053,161461,38.21893,46.54738,52.16781,27.38682,-0.46807,2.27329,9.77553,0.00906,0.07861,0.03464
1054,161618,38.21893,46.54738,52.16781,27.38682,-0.4142,2.27808,9.76834,0.00999,0.07994,0.03291
1055,161772,38.21893,46.59847,52.16781,27.38682,-0.42856,2.29005,9.7444,0.00866,0.07927,0.03371
1056,161926,38.27002,46.59847,52.16781,27.33573,-0.42737,2.2721,9.76475,0.00853,0.07967,0.03198
1057,162080,38.16783,46.54738,52.16781,27.38682,-0.42377,2.28287,9.7875,0.00853,0.08074,0.03144
1058,162234,38.21893,46.54738,52.16781,27.38682,-0.44293,2.25175,9.78989,0.00879,0.07727,0.03184
1059,162391,38.27002,46.54738,52.16781,27.38682,-0.44532,2.28646,9.7037,0.00839,0.07941,0.03397
1060,162545,38.21893,46.59847,52.11671,27.33573,-0.44532,2.28886,9.73842,0.00879,0.07981,0.03357
1061,162699,38.21893,46.59847,52.16781,27.33573,-0.46208,2.31519,9.78989,0.00839,0.08154,0.03251
1062,162853,38.27002,46.54738,52.16781,27.33573,-0.4537,2.24097,9.78391,0.00586,0.07941,0.03264
1063,163007,38.21893,46.54738,52.16781,27.38682,-0.44412,2.25893,9.79348,0.00826,0.07861,0.03411
1064,163164,38.27002,46.54738,52.16781,27.38682,-0.49201,2.28287,9.69053,0.00866,0.07941,0.03464
1065,163318,38.27002,46.54738,52.16781,27.38682,-0.50278,2.28167,9.72405,0.00853,0.08047,0.03464
1066,163472,38.27002,46.54738,52.16781,27.38682,-0.4549,2.25294,9.72644,0.00826,0.07861,0.03451
1067,163626,38.21893,46.54738,52.16781,27.38682,-0.43455,2.2314,9.77193,0.00973,0.07994,0.03331
1068,163793,38.27002,46.54738,52.16781,27.38682,-0.41539,2.29005,9.71447,0.00786,0.08087,0.03251
1069,163947,38.21893,46.59847,52.11671,27.38682,-0.42497,2.25294,9.76116,0.00893,0.07941,0.03238
1070,164101,38.21893,46.59847,52.16781,27.38682,-0.43096,2.28886,9.76236,0.00719,0.07847,0.03171
1071,164255,38.21893,46.59847,52.16781,27.38682,-0.45849,2.29963,9.69053,0.00826,0.07914,0.03344
1072,164409,38.27002,46.59847,52.16781,27.38682,-0.43455,2.28287,9.72884,0.00973,0.07994,0.03331
1073,164566,38.21893,46.59847,52.16781,27.33573,-0.44412,2.25414,9.81623,0.00799,0.081,0.03371
1074,164720,38.21893,46.59847,52.16781,27.38682,-0.47764,2.29724,9.77912,0.00866,0.07834,0.03264
1075,164874,38.21893,46.54738,52.16781,27.38682,-0.46088,2.27449,9.76954,0.00986,0.07887,0.03357
1076,165028,38.27002,46.59847,52.11671,27.38682,-0.413,2.28407,9.74201,0.00866,0.08087,0.03371
1077,165182,38.21893,46.54738,52.16781,27.38682,-0.44173,2.30202,9.77313,0.00906,0.07927,0.03277
1078,165340,38.27002,46.54738,52.16781,27.38682,-0.42258,2.27329,9.76595,0.00866,0.07994,0.03491
1079,165494,38.27002,46.59847,52.16781,27.38682,-0.45131,2.28287,9.75158,0.00946,0.07954,0.03464
1080,165648,38.21893,46.54738,52.16781,27.38682,-0.43934,2.30083,9.74919,0.00839,0.07901,0.03437
1081,165802,38.21893,46.54738,52.16781,27.38682,-0.45131,2.27449,9.7456,0.00733,0.07834,0.03317
1082,165956,38.21893,46.59847,52.16781,27.38682,-0.44053,2.26132,9.79468,0.01066,0.07981,0.03144
1083,166113,38.27002,46.54738,52.11671,27.38682,-0.46567,2.28407,9.69053,0.00826,0.07994,0.03304
1084,166267,38.21893,46.59847,52.16781,27.38682,-0.43455,2.28886,9.75757,0.00973,0.07994,0.03264
1085,166421,38.21893,46.59847,52.21891,27.33573,-0.43574,2.30083,9.79468,0.00706,0.07954,0.03184
1086,166575,38.21893,46.59847,52.16781,27.33573,-0.45131,2.30083,9.69173,0.00826,0.0806,0.03264
1087,166732,38.21893,46.54738,52.16781,27.38682,-0.46807,2.30322,9.73602,0.00719,0.07914,0.03291
1088,166886,38.21893,46.54738,52.16781,27.38682,-0.4537,2.28407,9.78271,0.00839,0.07927,0.03277
1089,167040,38.27002,46.54738,52.16781,27.38682,-0.44772,2.3128,9.76475,0.00879,0.07927,0.03384
1090,167194,38.21893,46.59847,52.16781,27.33573,-0.42617,2.25055,9.73363,0.00719,0.07927,0.03317
1091,167348,38.27002,46.54738,52.16781,27.38682,-0.48123,2.27808,9.81623,0.0064,0.08047,0.03344
1092,167505,38.21893,46.54738,52.16781,27.33573,-0.43574,2.27689,9.73482,0.00893,0.08021,0.03344
1093,167659,38.21893,46.59847,52.16781,27.33573,-0.45729,2.26013,9.73722,0.00706,0.07981,0.03264
1094,167813,38.21893,46.59847,52.16781,27.38682,-0.45849,2.2721,9.72285,0.00839,0.08047,0.03411
1095,167967,38.21893,46.59847,52.16781,27.38682,-0.4561,2.27689,9.7432,0.00839,0.08154,0.03304
1096,168121,38.21893,46.54738,52.16781,27.38682,-0.43455,2.29245,9.77074,0.00839,0.0814,0.03384
1097,168278,38.27002,46.54738,52.16781,27.38682,-0.44293,2.2709,9.7432,0.00733,0.08034,0.03357
1098,168432,38.27002,46.54738,52.16781,27.43792,-0.46687,2.25414,9.75757,0.00853,0.08087,0.03384
1099,168586,38.27002,46.59847,52.16781,27.38682,-0.54468,2.30202,9.75637,0.00893,0.08074,0.03304
1100,168740,38.27002,46.59847,52.16781,27.38682,-0.49081,2.30202,9.7444,0.00906,0.08034,0.03411
1101,168897,38.27002,46.54738,52.16781,27.38682,-0.51834,2.26252,9.66539,0.00773,0.08021,0.03291
1102,169051,38.21893,46.59847,52.16781,27.33573,-0.48243,2.25294,9.7456,0.00893,0.08074,0.03331
1103,169205,38.21893,46.59847,52.16781,27.38682,-0.46448,2.25654,9.73123,0.00799,0.07727,0.03171
1104,169359,38.21893,46.54738,52.16781,27.38682,-0.42138,2.29125,9.80066,0.00733,0.08007,0.03424
1105,169513,38.21893,46.54738,52.16781,27.38682,-0.42018,2.26731,9.75637,0.00999,0.07794,0.03357
1106,169680,38.21893,46.59847,52.16781,27.38682,-0.43455,2.2721,9.76834,0.00853,0.07914,0.03304
1107,169832,38.21893,46.59847,52.16781,27.38682,-0.44053,2.24696,9.74799,0.00946,0.08007,0.03224
1108,169985,38.27002,46.59847,52.16781,27.33573,-0.45969,2.25654,9.78271,0.00826,0.07767,0.03277
1109,170138,38.27002,46.59847,52.16781,27.38682,-0.43215,2.27449,9.79468,0.00799,0.07861,0.03331
1110,170291,38.27002,46.54738,52.16781,27.33573,-0.47166,2.25055,9.73961,0.00853,0.08114,0.03291
1111,170447,38.27002,46.59847,52.16781,27.33573,-0.47166,2.19548,9.663,0.00986,0.07501,0.03597
1112,170600,38.27002,46.54738,52.16781,27.38682,-0.43574,2.25414,9.71088,0.00786,0.08167,0.03277
1113,170753,38.27002,46.54738,52.16781,27.38682,-0.42497,2.30442,9.76475,0.00919,0.07927,0.03331
1114,170906,38.27002,46.54738,52.16781,27.38682,-0.44173,2.26252,9.74201,0.00759,0.07954,0.03304
1115,171062,38.27002,46.59847,52.16781,27.33573,-0.4118,2.30322,9.79109,0.00906,0.08021,0.03344
1116,171223,38.27002,46.59847,52.16781,27.38682,-0.44891,2.27689,9.73123,0.00893,0.07714,0.03184
1117,171376,38.21893,46.59847,52.16781,27.33573,-0.46088,2.3116,9.76595,0.00853,0.07834,0.03291
1118,171529,38.21893,46.59847,52.16781,27.38682,-0.43096,2.23499,9.75996,0.00786,0.07887,0.03224
1119,171682,38.21893,46.59847,52.16781,27.38682,-0.45849,2.24816,9.75637,0.00986,0.08007,0.03277
1120,171838,38.27002,46.59847,52.16781,27.38682,-0.45011,2.26372,9.71567,0.00799,0.07887,0.03357
1121,171991,38.27002,46.54738,52.16781,27.38682,-0.46208,2.25534,9.76954,0.00733,0.07967,0.03451
1122,172144,38.21893,46.59847,52.16781,27.38682,-0.4561,2.28048,9.75757,0.00933,0.07821,0.03198
1123,172297,38.21893,46.59847,52.16781,27.38682,-0.45131,2.25893,9.78151,0.00986,0.08007,0.03304
1124,172450,38.21893,46.54738,52.16781,27.38682,-0.46448,2.24696,9.77193,0.00813,0.07767,0.03238
1125,172606,38.27002,46.54738,52.16781,27.38682,-0.42976,2.24816,9.80066,0.00959,0.07927,0.03224
1126,172759,38.21893,46.59847,52.16781,27.38682,-0.35434,2.29724,9.71926,0.00679,0.0806,0.03238
1127,172912,38.21893,46.59847,52.16781,27.38682,-0.35434,2.25175,9.80904,0.00906,0.07927,0.03277
1128,173065,38.21893,46.59847,52.16781,27.38682,-0.42018,2.29245,9.83778,0.00773,0.07821,0.03251
1129,173218,38.16783,46.59847,52.16781,27.38682,-0.45969,2.27449,9.84017,0.01039,0.07887,0.03437
1130,173374,38.16783,46.59847,52.16781,27.33573,-0.46328,2.30202,9.78031,0.01092,0.08074,0.03371
1131,173527,38.16783,46.59847,52.16781,27.38682,-0.42976,2.29963,9.74081,0.00946,0.07727,0.03277
1132,173680,38.11674,46.59847,52.16781,27.33573,-0.42737,2.30322,9.75517,0.00906,0.07568,0.03411
1133,173833,38.11674,46.54738,52.16781,27.38682,-0.37469,2.28048,9.72405,0.01039,0.07994,0.03264
1134,173989,38.16783,46.59847,52.16781,27.38682,-0.40223,2.28167,9.72884,0.00719,0.08114,0.03171
1135,174142,38.16783,46.59847,52.16781,27.38682,-0.4142,2.25654,9.73482,0.00986,0.07927,0.03291
1136,174295,38.21893,46.59847,52.16781,27.38682,-0.41779,2.28287,9.76116,0.00839,0.07914,0.03304
1137,174448,38.21893,46.59847,52.16781,27.38682,-0.4142,2.27808,9.7863,0.00866,0.07927,0.03224
1138,174601,38.21893,46.59847,52.16781,27.38682,-0.39385,2.28646,9.77553,0.00733,0.07861,0.03424
1139,174757,38.21893,46.59847,52.16781,27.38682,-0.43455,2.30322,9.68694,0.00906,0.07954,0.03357
1140,174910,38.21893,46.59847,52.16781,27.38682,-0.42258,2.22062,9.77792,0.00839,0.08034,0.03184
1141,175063,38.21893,46.59847,52.16781,27.38682,-0.39385,2.28048,9.70729,0.00853,0.07994,0.03384
1142,175216,38.21893,46.59847,52.16781,27.38682,-0.45729,2.28167,9.72405,0.00839,0.07874,0.03291
1143,175369,38.21893,46.59847,52.16781,27.38682,-0.47046,2.229,9.76236,0.00679,0.07754,0.03384
1144,175534,38.21893,46.59847,52.16781,27.33573,-0.51116,2.2721,9.80066,0.00759,0.07847,0.03291
1145,175688,38.21893,46.59847,52.16781,27.38682,-0.44053,2.27449,9.75039,0.00919,0.08074,0.03424
1146,175842,38.21893,46.59847,52.16781,27.33573,-0.43814,2.29005,9.73123,0.00933,0.07941,0.03304
1147,175996,38.21893,46.59847,52.16781,27.38682,-0.44173,2.25055,9.74679,0.00906,0.081,0.03317
1148,176153,38.21893,46.54738,52.16781,27.38682,-0.42737,2.26731,9.77193,0.00906,0.07901,0.03411
1149,176307,38.21893,46.59847,52.16781,27.33573,-0.47166,2.26611,9.72405,0.00826,0.08034,0.03264
1150,176461,38.21893,46.59847,52.16781,27.38682,-0.44652,2.27808,9.73243,0.00826,0.081,0.03344
1151,176615,38.21893,46.59847,52.16781,27.33573,-0.43814,2.30562,9.78391,0.01053,0.07981,0.03491
1152,176769,38.21893,46.59847,52.16781,27.38682,-0.45131,2.25175,9.73961,0.00893,0.07834,0.03317
1153,176926,38.21893,46.59847,52.16781,27.38682,-0.44772,2.26372,9.77912,0.00973,0.07954,0.03304
1154,177080,38.21893,46.59847,52.16781,27.38682,-0.41659,2.24456,9.74679,0.01039,0.08047,0.03397
1155,177234,38.21893,46.59847,52.16781,27.38682,-0.47525,2.27808,9.7432,0.00719,0.07714,0.03344
1156,177388,38.21893,46.59847,52.16781,27.38682,-0.45729,2.29245,9.75877,0.00879,0.07861,0.03317
1157,177542,38.16783,46.59847,52.16781,27.38682,-0.46567,2.25534,9.73961,0.00906,0.07954,0.03437
1158,177699,38.21893,46.59847,52.16781,27.38682,-0.37828,2.30562,9.7049,0.00733,0.08087,0.03198
1159,177853,38.21893,46.59847,52.11671,27.38682,-0.39385,2.2697,9.80186,0.00786,0.08074,0.03277
1160,178007,38.21893,46.59847,52.16781,27.33573,-0.50637,2.24696,9.80186,0.00799,0.07954,0.03384
1161,178161,38.16783,46.59847,52.16781,27.38682,-0.44532,2.27449,9.72405,0.00866,0.07981,0.03171
1162,178318,38.16783,46.59847,52.16781,27.38682,-0.44532,2.26013,9.70969,0.00799,0.08127,0.03251
1163,178472,38.16783,46.54738,52.16781,27.38682,-0.42497,2.26491,9.73243,0.00839,0.07994,0.03277
1164,178626,38.16783,46.59847,52.16781,27.33573,-0.4537,2.29005,9.77912,0.00853,0.07834,0.03158
1165,178780,38.16783,46.59847,52.16781,27.38682,-0.47285,2.29125,9.69053,0.00973,0.08167,0.03277
1166,178934,38.16783,46.59847,52.16781,27.38682,-0.47645,2.30202,9.75039,0.00946,0.08167,0.03424
1167,179091,38.16783,46.59847,52.16781,27.38682,-0.42138,2.25055,9.71806,0.00893,0.08007,0.03277
1168,179245,38.16783,46.59847,52.16781,27.38682,-0.43096,2.27928,9.72285,0.00906,0.07927,0.03331
1169,179399,38.16783,46.59847,52.16781,27.38682,-0.42856,2.24456,9.71567,0.00853,0.07967,0.03344
1170,179553,38.21893,46.54738,52.16781,27.38682,-0.42018,2.27689,9.78151,0.00799,0.08234,0.03264
1171,179707,38.21893,46.59847,52.16781,27.38682,-0.46328,2.28886,9.72525,0.00773,0.08087,0.03384
1172,179864,38.21893,46.59847,52.16781,27.38682,-0.45131,2.26491,9.67257,0.00799,0.08154,0.03371
1173,180018,38.16783,46.59847,52.16781,27.38682,-0.47525,2.29843,9.75039,0.00813,0.07581,0.03397
1174,180172,38.16783,46.59847,52.16781,27.38682,-0.46926,2.27689,9.75398,0.01092,0.07981,0.03251
1175,180326,38.21893,46.59847,52.16781,27.38682,-0.50278,2.28527,9.77912,0.00879,0.07794,0.03291
1176,180480,38.21893,46.59847,52.16781,27.33573,-0.48123,2.29724,9.72764,0.00826,0.08074,0.03491
1177,180637,38.21893,46.59847,52.16781,27.33573,-0.45849,2.26851,9.78869,0.00906,0.07807,0.03238
1178,180791,38.21893,46.59847,52.16781,27.38682,-0.43814,2.30681,9.75158,0.00999,0.07901,0.03331
1179,180945,38.21893,46.59847,52.16781,27.38682,-0.49201,2.26013,9.77074,0.00893,0.08047,0.03371
1180,181099,38.21893,46.59847,52.16781,27.38682,-0.44053,2.29484,9.77792,0.00866,0.07994,0.03317
1181,181266,38.21893,46.59847,52.16781,27.38682,-0.44532,2.26491,9.74919,0.00773,0.07847,0.03317
1182,181420,38.21893,46.59847,52.16781,27.38682,-0.45969,2.28167,9.7456,0.00759,0.08087,0.03464
1183,181574,38.21893,46.59847,52.16781,27.38682,-0.48961,2.25534,9.75637,0.00879,0.07887,0.03238
1184,181728,38.21893,46.59847,52.16781,27.33573,-0.45131,2.27569,9.76116,0.00813,0.07927,0.03331
1185,181882,38.21893,46.59847,52.16781,27.38682,-0.43694,2.25414,9.73722,0.00813,0.07927,0.03411
1186,182039,38.21893,46.59847,52.16781,27.38682,-0.42258,2.29843,9.73243,0.00933,0.07794,0.03344
1187,182193,38.21893,46.59847,52.16781,27.38682,-0.45011,2.33195,9.7456,0.00893,0.07874,0.03397
1188,182347,38.16783,46.59847,52.16781,27.38682,-0.48961,2.29963,9.75996,0.00826,0.08074,0.03464
1189,182501,38.21893,46.64957,52.16781,27.33573,-0.44173,2.28886,9.75637,0.00879,0.07821,0.03384
1190,182655,38.21893,46.59847,52.16781,27.33573,-0.413,2.24576,9.75637,0.00679,0.08021,0.03397
1191,182812,38.21893,46.59847,52.16781,27.33573,-0.47285,2.26491,9.78031,0.0064,0.07981,0.03264
1192,182966,38.21893,46.59847,52.16781,27.38682,-0.4537,2.25294,9.76595,0.00853,0.07874,0.03251
1193,183120,38.21893,46.59847,52.16781,27.38682,-0.46926,2.314,9.77912,0.00933,0.08047,0.03277
1194,183274,38.21893,46.59847,52.16781,27.38682,-0.43215,2.26851,9.75158,0.00773,0.07821,0.03357
1195,183431,38.21893,46.59847,52.11671,27.38682,-0.42377,2.26013,9.74081,0.00906,0.08021,0.03411
1196,183585,38.21893,46.59847,52.16781,27.33573,-0.47884,2.30202,9.73004,0.00986,0.07941,0.03277
1197,183739,38.21893,46.59847,52.16781,27.38682,-0.4956,2.28167,9.75039,0.00746,0.07994,0.03357
1198,183893,38.21893,46.59847,52.16781,27.43792,-0.45729,2.29604,9.71926,0.01039,0.08034,0.03397
1199,184047,38.21893,46.59847,52.16781,27.38682,-0.46208,2.25654,9.67856,0.00893,0.07834,0.03078
1200,184204,38.21893,46.59847,52.16781,27.33573,-0.47046,2.27569,9.76834,0.00893,0.07954,0.03331
1201,184358,38.21893,46.59847,52.16781,27.38682,-0.48363,2.26731,9.74201,0.01026,0.07967,0.03397
1202,184512,38.21893,46.59847,52.16781,27.38682,-0.42976,2.30681,9.70849,0.00826,0.07767,0.03291
1203,184666,38.21893,46.59847,52.16781,27.38682,-0.40582,2.2709,9.75278,0.00666,0.08047,0.03384
1204,184820,38.21893,46.59847,52.16781,27.38682,-0.44532,2.30442,9.78031,0.00813,0.07767,0.03317
1205,184978,38.21893,46.59847,52.16781,27.38682,-0.44652,2.26611,9.75637,0.00786,0.0814,0.03344
1206,185132,38.21893,46.59847,52.16781,27.33573,-0.43934,2.25294,9.77672,0.00879,0.08034,0.03304
1207,185286,38.21893,46.54738,52.16781,27.33573,-0.39265,2.29963,9.75398,0.00799,0.07954,0.03397
1208,185440,38.21893,46.59847,52.16781,27.38682,-0.48961,2.2709,9.75278,0.00759,0.08154,0.03397
1209,185597,38.21893,46.59847,52.16781,27.38682,-0.42737,2.28886,9.73842,0.00986,0.07941,0.03357
1210,185751,38.21893,46.59847,52.16781,27.38682,-0.4561,2.29843,9.71806,0.01013,0.08007,0.03424
1211,185905,38.21893,46.59847,52.16781,27.38682,-0.52074,2.25654,9.74679,0.00933,0.0806,0.03277
1212,186059,38.21893,46.59847,52.16781,27.38682,-0.44053,2.28886,9.72884,0.00906,0.07941,0.03504
1213,186213,38.21893,46.64957,52.16781,27.33573,-0.46088,2.26372,9.75398,0.00919,0.07847,0.03411
1214,186370,38.21893,46.59847,52.16781,27.38682,-0.44772,2.24696,9.71687,0.01013,0.08087,0.03291
1215,186524,38.21893,46.59847,52.16781,27.33573,-0.42018,2.29005,9.76834,0.00893,0.08007,0.03291
1216,186678,38.21893,46.59847,52.16781,27.38682,-0.44293,2.29245,9.7444,0.00866,0.0822,0.03224
1217,186832,38.21893,46.59847,52.21891,27.33573,-0.413,2.28287,9.7432,0.00919,0.08007,0.03371
1218,186986,38.21893,46.59847,52.21891,27.33573,-0.4525,2.28048,9.71328,0.00719,0.08021,0.03158
1219,187153,38.21893,46.59847,52.16781,27.38682,-0.45729,2.30322,9.75278,0.00906,0.07767,0.03291
1220,187305,38.21893,46.59847,52.16781,27.38682,-0.4537,2.26013,9.77074,0.00933,0.08127,0.03317
1221,187458,38.21893,46.59847,52.16781,27.38682,-0.42737,2.33435,9.79588,0.00839,0.07994,0.03291
1222,187611,38.21893,46.59847,52.16781,27.33573,-0.47645,2.29005,9.76236,0.00826,0.08021,0.03184
1223,187767,38.21893,46.59847,52.16781,27.38682,-0.43574,2.24816,9.77074,0.00706,0.07981,0.03251
1224,187920,38.21893,46.59847,52.16781,27.38682,-0.4525,2.27569,9.73004,0.00893,0.07927,0.03304
1225,188073,38.21893,46.59847,52.16781,27.38682,-0.44652,2.2709,9.77912,0.00813,0.07741,0.03451
1226,188226,38.21893,46.59847,52.16781,27.33573,-0.47884,2.28646,9.73842,0.00893,0.07874,0.03331
1227,188379,38.21893,46.54738,52.16781,27.38682,-0.42856,2.30202,9.76834,0.00906,0.07767,0.03291
1228,188535,38.21893,46.59847,52.16781,27.38682,-0.46567,2.2721,9.76595,0.00893,0.07847,0.03384
1229,188696,38.21893,46.59847,52.21891,27.33573,-0.42138,2.26372,9.75877,0.00759,0.08021,0.03371
1230,188849,38.21893,46.59847,52.16781,27.38682,-0.43694,2.25175,9.7456,0.00893,0.0806,0.03264
1231,189002,38.21893,46.59847,52.16781,27.38682,-0.42258,2.29484,9.75039,0.00826,0.08007,0.03397
1232,189155,38.21893,46.59847,52.16781,27.33573,-0.42737,2.28766,9.76954,0.00919,0.08047,0.03397
1233,189311,38.21893,46.59847,52.16781,27.38682,-0.46687,2.29484,9.72525,0.00813,0.07981,0.03411
1234,189464,38.21893,46.59847,52.16781,27.38682,-0.42976,2.28167,9.75877,0.00866,0.07887,0.03317
1235,189617,38.21893,46.59847,52.16781,27.33573,-0.48842,2.29005,9.74081,0.00839,0.08047,0.03304
1236,189770,38.21893,46.59847,52.16781,27.38682,-0.4561,2.25175,9.79468,0.00853,0.07967,0.03371
1237,189923,38.21893,46.64957,52.16781,27.33573,-0.46567,2.29365,9.70011,0.00733,0.07954,0.03371
1238,190079,38.21893,46.59847,52.16781,27.38682,-0.46567,2.30202,9.79468,0.00839,0.08021,0.03304
1239,190232,38.21893,46.59847,52.16781,27.38682,-0.44293,2.27689,9.70011,0.00919,0.08007,0.03437
1240,190385,38.21893,46.59847,52.16781,27.33573,-0.43934,2.2697,9.7432,0.00733,0.07807,0.03357
1241,190538,38.21893,46.59847,52.16781,27.38682,-0.44532,2.29125,9.73123,0.00839,0.07687,0.03397
1242,190694,38.21893,46.59847,52.16781,27.38682,-0.44891,2.30202,9.72525,0.00866,0.07981,0.03171
1243,190847,38.21893,46.54738,52.16781,27.38682,-0.46448,2.24456,9.74679,0.00866,0.07834,0.03184
1244,191000,38.21893,46.59847,52.16781,27.33573,-0.47405,2.25773,9.7444,0.00853,0.07914,0.03357
1245,191153,38.21893,46.59847,52.16781,27.38682,-0.47525,2.28527,9.7875,0.00893,0.07794,0.03238
1246,191306,38.21893,46.59847,52.16781,27.38682,-0.49919,2.32238,9.79827,0.00906,0.0834,0.03211
