index,elapse_time,susp_fl,susp_fr,susp_rl,susp_rr,acc_x,acc_y,acc_z,rot_x,rot_y,rot_z
0,0,-0.005313064512067057,0.0008330104157472609,0.0091787341303945,-0.00048262567599485626,0.030806629015702743,0.0008222341762628938,9.811157894347549,0.01001991382654701,-0.007562406575899294,0.00754506029367169
1,10,0.0016165976408402572,0.0031421956717393043,0.004491506219231894,-0.004285380848545781,0.20580204672384295,-0.019654510415185844,9.974386104906925,-0.0004330093782826472,0.0028113974973765733,-0.02874151240440076
2,20,0.0007679693621393706,-0.017878896617435008,0.0044376087535632994,0.007330651578307002,-0.01584223461310215,-0.03976293163122981,9.575555894824857,0.0029242509851944544,-0.0002153695395283755,-0.025805651131229432
3,30,0.0007115395041301374,-0.005055020804741767,0.0024184984513264465,0.010627284216497924,-0.1472918132256924,-0.02053761131108254,9.752188771570403,-0.006349685713378,0.0033477578549714936,-0.006096939109257884
4,40,-0.004338337911580436,-0.007187582695419065,-0.022622973047572596,0.018657363760721676,0.07291818547709081,0.12183239403358118,9.815038477743865,0.009283816838645235,-0.010615870622870317,0.02134329657647197
5,50,0.01086632706988573,0.0011394118564128195,0.016448913036790025,0.014514012376638873,0.12357106419226613,-0.08099244347123724,9.644087371898594,0.037138047494043175,-0.024173886860382913,-0.0004378780980234405
6,60,0.030773202090380158,0.0023685429784821898,-0.006005023681542321,0.015196242098639075,0.08409258853791717,-0.0013328498130465438,9.729725119473933,0.016794935253417284,-0.0017281210198289675,0.013171701197995017
7,70,0.02937809090576612,0.013057793880266958,0.018981044708742206,0.009073764372916978,-0.1827476900182388,0.03028435698490599,9.603747607431385,0.007777892436153474,0.004374666491084541,0.012405456264590222
8,80,0.030965912825995066,0.013462794318412883,0.002404368791665338,-0.0017468011926206391,0.0011792964039936508,0.03498607920294314,10.083249818965186,0.06526978794779464,-0.005268551222927609,0.004909868974852538
9,90,0.0002827294256278731,0.017450037281460544,0.0021812882040726997,0.007388387381823983,0.10255565493317358,0.08320584549066605,9.98849308716412,-0.008592706461271369,0.008105212412698758,0.028934678394894733
10,100,0.02494428904801884,0.005889853443523114,-0.002613253283766102,-0.001168515210469563,0.08266382069957759,0.04378003225178946,9.94241178192057,0.01090738810929515,-0.0008081854556974705,0.0016099474893326005
11,110,0.0003359484529391434,0.012298250995327577,0.015524589038679846,0.014912900585828922,0.024382537700428735,0.2077917719109924,9.984281258699674,0.0033916061175346575,-0.007843334160250308,-0.001908598044664482
12,120,0.028079281936528908,0.011464730888487623,0.022256656372005128,0.024007164293182184,0.013717482519126044,-0.06265744584941568,9.82251321878402,0.0256393276123068,0.020012701444028627,-0.008501656723945846
13,130,0.04744874355139399,0.03145346930547456,0.02608423148606824,0.005362425444427967,0.05802953673067171,0.09490733603198234,9.336938989446264,0.028216887471922282,0.02598532516251379,0.04107702009606912
14,140,0.013572381296376272,0.02206247962908922,0.024822569589962738,0.003216330862924997,0.05239556373012301,0.09620569726773537,9.680288475254475,0.01041207582140398,-0.012841290956230114,-0.0018995044222138865
15,150,0.015734059357950872,-0.0007444222635367463,0.018275627624675966,0.02241566299545223,-0.06008005941654923,-0.024154831893283896,9.95356169761648,0.015416693328913674,0.012887781101566525,-0.003717977509982486
16,160,0.030443362739863113,0.02476493827537449,0.05589710523205059,0.03146033541400452,-0.010007076083625964,0.046567907896203894,9.61142386882204,0.0041315000697625046,0.009282819750891718,-0.008336501849064122
17,170,0.02395009265105316,0.01626790890605445,0.013325973728459957,0.01688654358958822,-0.05126405636325893,0.02332453770639365,10.213275595062822,0.05928487146662889,0.010611285561816237,-0.03628519435309133
18,180,0.02277504873605366,0.02185240283235123,0.02965101314515068,0.0305568950863538,0.0937414961389532,0.013682075717266484,9.590795559255717,0.047024926634714026,0.007508785943494037,-0.0035307540070395257
19,190,0.012164567429638135,0.005087907683357369,-0.003853839180377055,0.03928173176505097,-0.060289079729377894,0.09583145011761826,9.94965657694233,0.04471492305213519,0.020150306158912966,0.03537958732102071
20,200,0.042067850363666365,0.009370724292293174,0.020164749138666397,0.015020400839783099,0.23228133800373907,-0.03764937955131645,9.96549790834362,0.018439423589098426,0.006554884936662212,0.06944482865462813
21,210,0.02928277623133061,0.017708215068168172,0.012219594497964826,0.028003611270899557,0.20603409773511308,0.03787797366912393,9.737873936986489,0.021465002317880007,0.01200259537553165,-0.01680330520065976
22,220,0.02239088619141495,-0.012082396068189623,0.03238375694498896,0.014081577293973932,-0.0970925884145532,0.022145101300374094,10.088939972289605,0.010119883589327815,0.01157437721426719,0.02584153792129302
23,230,0.030049836570649677,0.030243366840416428,0.025695636641512625,0.026537772419926886,0.26933358472553,-0.032370740534817366,9.875101265234147,0.016559597924115092,0.024758570100793152,0.03407956611303671
24,240,0.024733623345119474,0.0063016855252450606,0.008103341783909972,0.02796769209006421,-0.050992816770683916,0.12436571768259266,9.873791641941494,0.022641732604352757,0.0131103899643176,0.009742795109543477
25,250,0.01386203225881373,0.0029475202520847467,0.012817754070308484,0.020034168290973438,0.048037880250230994,0.0782058945319117,10.082731733236518,0.025703157840225716,0.007559499977460497,-0.015132488264883701
26,260,0.015358757820741085,-0.004318777037483732,0.007010078346524082,0.0032104059441207884,0.03937419914645548,0.08611531939417992,10.180825559291318,0.03555899172188153,0.02437811781863401,-0.0013487580944017078
27,270,0.019636224400023668,-0.00020328164886194858,-0.002675753531779672,0.012538365736787975,-0.04077526053486477,0.02449546072039422,10.112903460793383,0.028703847543767827,0.011529868119257932,0.029422830333126457
28,280,0.008637130560958196,0.016463287118507253,0.04291312552198008,0.007670965727872452,0.08569504466256707,0.22948961434496995,9.928415771700198,0.017450433176651303,0.0013181572820489887,0.012169409206258535
29,290,0.015494924468412666,0.0025627188279313297,0.01294247027094059,0.022361764423765258,0.019579989674708524,0.1331978014783721,9.91040822814806,0.04392491918523242,0.018752271680928884,0.008059077382807062
30,300,0.029659269675051923,0.0013882779048977928,0.016382886355634722,0.0025563338406483236,0.13934024921642885,0.024749646787704162,9.905339562201704,0.06853141125962556,0.02121095744872874,0.01491157097036642
31,310,0.012378238275546459,0.0003459360470138154,0.013648509736176581,0.018879903041412384,0.1727881510497184,0.06174212512396944,9.92699474709915,0.08495542599506233,0.015594129667464526,0.021042678630463076
32,320,0.0020641177653798037,-0.006863611687191204,-0.013128507614414607,-0.012004224169529223,0.08654072789652942,0.10598330929464889,9.89836395476433,0.031028938981282048,0.006442295080283551,0.033869623118451105
33,330,0.013066300780045,0.007500031747968537,0.023228036042816768,0.00978394638007338,0.2711020750100584,0.13071992519080444,9.921178364556658,0.02771203442337785,0.024698183712414924,0.004039898411902322
34,340,0.028393377868945455,-0.003242719661717695,0.017147177008520604,0.02124923576945254,0.13385995608767765,-0.05240998266696853,10.16837083593918,0.06669735519740866,0.008841020012856811,0.03229994260319572
35,350,0.03247856228910508,0.010432995922320385,0.013322052607094794,0.012332099376679832,0.0675901019706513,0.22088723989479586,10.043552641433552,0.06544307175901028,0.00587647555721788,0.019668688332324644
36,360,0.019283839069359387,0.019912972376558973,0.011727736272343824,0.005122884618232154,0.15709475309378604,0.07969495356432582,10.102507759422998,0.04089172772697435,0.01647028536498189,0.008497322570797022
37,370,0.024049398644408117,-0.0052708108810923,-0.0007345496174065193,0.012520661391208944,0.19002812500230343,0.15125398129508316,10.011148457256972,0.0597774102919998,0.02116899369071676,0.04683343018090094
38,380,0.03281203464947397,0.010041278240873242,0.021597192557755142,-0.012012494716667895,0.07567711736718491,0.1723362458799038,9.680082597427116,0.05265719798498706,0.028188068181998604,0.028125569945062597
39,390,0.027056483949775553,-0.0031980531275782767,0.020452433356545688,-0.006959093115115316,0.012020450214246373,0.010763838625713751,9.833967764385658,0.04058482536965241,0.01441736748768451,0.05317392648793484
40,400,0.0006070377177010123,0.009623696527657894,-0.011304789485909617,0.007869194305366162,0.19108988778043756,0.06405112131682883,9.91427512262822,0.04201687147149449,0.006532793801904696,0.018512813794358474
41,410,0.009287337537280546,-0.00829893721609801,0.01034582169953108,-0.012210047204394826,0.19497501166916714,0.07924601165684575,10.216067544012715,0.04173664325427208,0.009951520817112423,0.006247417153967048
42,420,0.0218127678121387,0.004874912546801453,0.026516011146444134,-0.0037376901618726933,0.10419932535952431,0.25769889230254117,10.501330541661595,0.05137506595186429,0.016466445147670497,0.019757161435483468
43,430,0.03402602437567461,-0.004221539382757774,0.02229406570964791,0.020416658241072857,-0.07426993546121465,-0.03975471988631896,10.24750362345651,0.0479341985576286,0.027576484283968104,0.07906857253359346
44,440,0.01789150790876559,-0.006331168601664507,-0.0035203996056873983,-0.010642727360720378,0.01515448830579487,-0.12311992128537418,9.995595541481844,0.06136131844432245,0.007545501082484177,0.0694256786796477
45,450,0.03511603618066299,-0.002711304964430304,0.030259709492775483,0.021629159214128883,-0.050557951214437874,-0.02334245322318447,10.267781318611124,0.06750253073078635,0.013393751929584079,0.015717796926640052
46,460,0.022627515960119818,-0.007054621550503125,0.022438517218417584,0.001491729196575249,0.21762127891272393,0.0484791737029332,10.372027851108557,0.0372330929871044,0.01632686759449671,0.02488156872829208
47,470,0.025148206672898066,-0.008781593627137915,0.013086768189635355,0.0074655032907997385,0.22736751717169731,0.04444509630482209,10.157931960021157,0.03775240959893061,0.026207627336565897,0.020240510297202568
48,480,0.02676851271871938,0.010460901244532226,0.04784134750543336,0.021637382453108783,0.22220579114136108,0.16347332734882952,10.152039050486977,0.05006909913844633,0.02470361673539004,-0.0066766044379347154
49,490,0.0464211259174916,0.013206939537360615,0.030809600179550176,0.015967795554452976,0.18271045329709676,0.07724105870643423,10.054195776452946,0.09329673926291403,0.0348670486084143,0.04805307194142778
50,500,0.038937211174725664,-0.010579619958891305,0.031359149242569793,0.007284920590384688,0.08778030747431226,0.042490764991024714,10.10213269687188,0.052472517647676145,0.02553281869332988,0.04450289289093179
51,510,0.02500583005830449,0.006165048648496227,0.0191173035364229,0.014109115854464886,0.03376389289590605,0.11649340382822214,10.178592788146316,0.04031373984837178,0.012212798136348674,0.026057283682732153
52,520,0.042250204351830356,0.0017928969457447616,0.03227867602454545,0.015432513341655667,0.12909434602032688,0.1757568243666055,10.17403698177276,0.09442229996407683,0.02709545080482524,0.06142623509532636
53,530,0.010441763494281383,0.01827364110595745,0.03638498782670117,0.004977294685258784,0.18564136098591907,0.26345073254806745,10.129964839455438,0.07587514931406496,0.0114632406879748,0.052807420977711336
54,540,0.018161218887167697,-0.004349039787010473,0.024145886248170666,0.0025556690005849227,0.21487007019546395,0.06450201035191593,10.243738965598782,0.02206124475171977,0.041984055703616664,0.04618111617430556
55,550,0.05411910574024064,0.011359281126016519,0.048085979048308955,0.018778615123721018,0.06066116226224609,0.12422970649167064,10.494903587621979,0.0424563509955832,0.01888269347036699,0.03032772740779803
56,560,0.05122492914249726,0.026164768403451884,0.04103546069785448,0.020860324699079308,0.1409014091076569,0.20025825286583165,10.163822035690067,0.07537215967454244,0.020621609500571778,0.0407133019512685
57,570,0.05369562955553072,0.03558537937020579,0.033212014791493404,0.023426233286435887,0.12860561630539963,0.16686110860993647,10.023067362782836,0.044636294604313606,0.025992171891413816,0.071758509752035
58,580,0.04665684665525336,0.007929122542386532,0.055477716658214424,0.013361349516825643,0.20826880494822317,0.20087727154542512,10.16440335651605,0.027435876940554077,0.03025570171573992,0.05634396236732579
59,590,0.022459563048289846,0.001603372650797327,0.02480922263827663,0.02388855073820645,0.22051404545847086,0.13283245760886572,10.30123068413627,0.08061091726111023,0.042662056519996265,0.014708847600942388
60,600,0.04459483253508396,0.010045431185985769,0.029195542726194384,0.003298315173432787,0.19051977384677304,0.09449335448231688,10.084773711422148,0.02453287801355694,0.0316285289713876,0.044587013221313004
61,610,0.0561598269046124,0.007473326821003631,0.04652221875815238,0.01001179884895079,0.03595595291470732,0.07176761632220009,10.24903980802076,0.07884814826655455,0.017689402443200053,0.03619375843846413
62,620,0.03679198784447285,0.025390369539627825,0.03368726641063026,0.020644766118429643,0.024050822671745298,0.230644747672785,10.216783917493915,0.06667862217046851,0.03502585212150975,0.022830344189947976
63,630,0.05647776285642176,0.011403851635019368,0.045564263556971386,0.016106319738635008,0.2655088856429278,0.21114323689162387,10.001126169572766,0.12148470077233374,0.036792255747033834,0.09552127132811156
64,640,0.046875454457250366,-0.007858008410738694,0.04329758960625468,0.006231144379261621,0.31357921830213853,0.11883471422938843,9.683603406827634,0.0880019312366569,0.023670425933741114,0.06026606977099433
65,650,0.044652066895661265,0.0005548474488220791,0.045913325809544506,0.02677957110807817,0.23153820910171996,0.3134441962518324,10.521420928953289,0.08284931951023825,0.026397267439901135,0.0889040159517054
66,660,0.05730214355743721,-0.00013550139576953488,0.03919651731705678,0.03685930044346317,0.04491951173750172,0.31543292613192603,10.356027626471501,0.0433041728309041,0.02894209942699036,0.04174680766308879
67,670,0.03647766493749037,-0.00717991835655407,0.03725833495894436,-0.007147363297367064,0.11295733546137217,0.26178376770140316,10.511351180384654,0.07893408533822246,0.02338645927069056,0.028499161477280564
68,680,0.03492501544661727,0.00478188493278383,0.03383986385363128,0.0161012841411424,0.13797140577211803,0.2576767639785586,10.38764272580156,0.08432314261740173,0.039659353962734956,0.05517987562302719
69,690,0.03562435542398456,0.006367862692366529,0.05378371001358845,0.030961999251234953,0.1670705234797913,0.1640597505628104,10.34223436787518,0.0921441811784853,0.026305541647408028,0.07392863581330271
70,700,0.037224162767289,-0.013409348526508071,0.02337602277421496,0.010258892853574392,-0.06100061082643518,0.21589562595579137,10.164726112916654,0.07445237221392834,0.03272952114839799,0.08773295836626518
71,710,0.055523904633233756,0.004243477171819996,0.031604908839115965,0.007743600671157832,0.25162510279114186,0.17781624492248568,9.982628511584176,0.055777610372508404,0.03703139584761747,0.044823156602433
72,720,0.03538769418051061,0.030208925979444273,0.026447063831524904,0.021981510546208973,0.22187018103215927,0.3230725509893261,10.276558757373353,0.10381843926890794,0.0391767566930211,0.058559409270918565
73,730,0.03765142452321369,-0.007099418789459203,0.02925906500533016,0.006835342421388967,0.22672231323031897,0.22432715853284835,10.459879583757035,0.07473663980036493,0.01844404817133882,0.10349505335558928
74,740,0.02695002569455452,-0.012286409776354904,0.02121900696613162,-0.0001468247779695316,0.15208234077056298,0.11542225526583026,10.269367278838901,0.09683153476356425,0.03622600933267768,0.06382141614737959
75,750,0.041868385816762006,-0.0005402235411378397,0.0243938565726401,0.012790858398205053,0.413525085554563,0.2429684881873286,10.272348987619912,0.10751318522037288,0.0119489199868477,0.008930667486850423
76,760,0.024649731177401484,-0.0031564011419764103,0.009815401381356685,0.006728219292981417,0.28438719034825277,0.30618896083600633,9.873214393061724,0.08599508500003138,0.042742895497665655,0.0375304756684006
77,770,0.01855569767158896,-0.007562863123896818,0.017064476182179957,-0.01947308370196001,0.16524201385677967,0.2427452520256833,9.916445097398935,0.07779835156123376,0.022488624158379437,0.08576441023187234
78,780,0.029899563007265106,-0.027905937429298883,0.004888155152885246,-0.023741927264631063,0.3013050144362401,0.26954640600848034,10.507870412728098,0.10363827679239751,0.042084958609052536,0.0559009727848107
79,790,0.02013208459841031,-0.008414411492871853,0.004137394358165259,-0.01465624638390048,0.19828989470161162,0.22282961159834858,10.46728157838643,0.10367891298948509,0.053823181636493383,0.026198978492411713
80,800,0.03084710665304574,-0.027744209853595096,0.020244443515106656,-0.01634545480496735,0.20262045648861357,0.22616486519903917,10.56574372652411,0.1136188155890826,0.023858469745432577,0.06037725380992369
81,810,0.0208361394019244,-0.010173864281147318,0.02072033871916873,-0.004903989416792346,0.17820131023348362,0.33754142780209034,10.04631612718848,0.11367017170349569,0.04742874990523953,0.04082286694509754
82,820,0.00302512608182962,-0.008023419458524247,-0.0041312725014118305,-0.008244927631461152,0.18153712755235116,0.10639201488580728,10.344134244679063,0.08463634692153889,0.04837484408191459,0.04702973508416085
83,830,0.050190394588299825,-0.012332896044275721,0.030656653544043275,-0.0048349332217737205,0.008593758536045076,0.26459169993272774,10.136852768278453,0.04866451820627076,0.04200550085103298,0.07665804769178457
84,840,0.02265271375396088,-0.0010821592154882263,0.006679058062457375,-0.00015755091719737643,0.0012918109068693062,0.2960081598695558,10.51177725238386,0.08112069050764423,0.04693900499738172,0.04778613693042329
85,850,0.023486917001028403,-0.03997314380609611,0.012854791857856143,-0.0019578667788864206,0.189484679003868,0.21216711345432626,10.203138382851959,0.09281698086037615,0.04657812407204868,0.049304810228585114
86,860,0.02769437151041022,-0.04137102665549702,0.01165888227613663,-0.012876086403985743,0.2925849620152131,0.17309746345130406,10.299995419705484,0.07815583904902136,0.03316037217985644,0.06772097613987807
87,870,0.01071057060348678,-0.027768418545255448,0.014769829116275852,-0.00785832479792191,0.1073050368056909,0.16003237212806795,10.35088278983711,0.09371261348584985,0.03769541861870362,0.03779019319671768
88,880,0.025797463326754744,-0.01686937692185477,0.020947706976468916,-0.018653063929608624,0.21674229165937686,0.3123501252629717,10.41878770593145,0.1001653409739683,0.04266948617393142,0.04491702031857812
89,890,0.019333761668314343,-0.02721057809413069,0.007278771956855352,-0.025815402618039614,0.12771020703179048,0.1981334468933266,10.284811055805788,0.06215015001356869,0.031845788400036906,0.023850185787566452
90,900,0.025584123438579243,-0.041894763218810714,0.004595829476109647,-0.02474270832178476,0.30635576512636353,0.15240967960113305,10.176618264741922,0.08130452279863495,0.038279036330883455,0.05860638513335105
91,910,0.027881199115340018,-0.007833102624826012,0.02346590365520978,-0.01240182233012965,0.2777347135141611,-0.028759162123055095,10.647740956924336,0.07290097253954331,0.040837987824411205,0.025052883037289975
92,920,0.031911515709488136,-0.012455528296557232,0.004180752389614762,-0.0016808466096520994,0.2798314361581098,0.16847797537225018,10.481376511655963,0.11663098300783627,0.04585447672250027,0.06714151299373376
93,930,0.007373375232663083,-0.03873553567577796,0.01359855117429107,-0.02628324375439868,0.1846577571081437,0.26537310007087134,10.356559829463567,0.08016466804115067,0.05220890996638507,0.046924227806736336
94,940,0.019666895925263172,-0.05711635726334291,0.011429472759141126,-0.008666864878398645,0.23401526928199834,0.1859355193497183,10.092303341215134,0.0970058148466967,0.04619667344722031,0.022902356311306167
95,950,0.024553211029398534,-0.013518343270869612,0.015546999718761265,-0.012926257713296328,0.25622099949648214,0.16991484179510474,10.110173967336475,0.07598720268974886,0.03746371927169177,0.07350982308777672
96,960,0.022284308642373858,-0.04715306968711469,0.02280796122200889,-0.004673340865672563,0.38286286911928,0.23872442201721555,10.00690055371147,0.06153567066886443,0.044120985995816396,0.04280925645201371
97,970,0.025147316439688233,-0.02980362302015238,0.019620305070603618,-0.006822062743334201,0.3317508544969323,0.2884957615959857,10.07113967958125,0.08099468669369812,0.03215148969408258,0.047507848732376984
98,980,0.04552193517113867,-0.010019579846070461,0.017097817161726182,-0.015303469160506174,0.22365275373234278,0.17413189767799922,10.91908001705738,0.10298173291778266,0.052202258416466904,0.08578818733616149
99,990,0.014056253321965674,-0.04258870029824805,0.007343724063540299,-0.03082282603194388,0.2675011139048714,0.16947580711907928,10.145518731052904,0.10920012009832834,0.05028263852967067,0.057139046796733824
100,1000,0.026319876173831008,-0.010939624694643612,0.03399107733325525,-0.01655327958936603,0.17311869648389283,0.34912018463805927,10.059595504733872,0.08038242143401066,0.042256516402282604,0.05866818173022576
101,1010,0.01990088055829646,-0.007037047102864296,0.01249935276373459,-0.0060438027124303205,0.4012556262007597,0.22691718656164495,10.248263812145835,0.10808123526214569,0.04112161983205822,0.0792406462807857
102,1020,0.03539637829827159,-0.0488280619676356,0.02705792603025342,0.013913775578105695,0.3013270451309008,0.17185047738981785,10.48722697892125,0.11058636618737865,0.05436071743103351,0.09514554901257037
103,1030,0.00644849645238094,-0.0315241942012955,0.018637099783178783,-0.020595660795560255,0.3355523851444432,0.2187958287483804,10.291324952152035,0.0937440955276595,0.04184593722202781,0.06817459607981408
104,1040,0.04087428225370149,-0.0230743237609976,0.03430674635519456,-0.0016610118092677548,0.4348093855413916,0.09450973132262708,10.528047594366777,0.08057073673101495,0.031119229539877374,0.07657552084587618
105,1050,0.03646326909605099,-0.020499539459075976,0.0153556436194072,-0.009252509018187853,0.10893958430575859,0.1475991313828735,10.337983148434219,0.10753498845981103,0.03954304626642621,0.058555275184581826
106,1060,0.0332999482468639,-0.02325243092926943,0.024389793421395127,-0.013121714230731593,0.23312267549274385,0.12678655433230634,10.320644853876344,0.09619262265836243,0.046465238147977164,0.01713836171878151
107,1070,0.01842415495324198,-0.004711280218450799,0.032807320519467026,-0.022796487336394167,0.3170833190130871,0.20347826185111262,10.438401966771586,0.08883922370296513,0.056884610464390424,0.08798599090206057
108,1080,0.02950609910817727,-0.029737293587064874,0.023555180573500253,-0.003738919079534126,0.4353770273377026,0.39973559183263263,10.079505545864983,0.07353910943114572,0.03689384637090266,0.11423990173382606
109,1090,0.04065652586407433,-0.014710797999896885,0.03275924908569594,-0.0048793474676476125,0.17753220530717595,0.18347202467127827,10.518903866689879,0.07631593527327514,0.05042686903745032,0.07031450215198692
110,1100,0.029285653477368,-0.03569764923524821,0.004504370010185729,-0.02909024595150777,0.15456071528522108,0.3225096030085617,10.132932918113024,0.09066303996671918,0.032766994928777146,0.044084390106593874
111,1110,0.04762246501476708,-0.030759374163020853,0.038183201415597785,-0.02380255025829394,0.32930113461160526,0.19206849100274406,10.40870100303523,0.08931312323654919,0.04045489813671305,-0.013083585457516169
112,1120,0.034690519217293825,-0.02100332943237558,0.009470353593659095,-0.010132373392263784,0.363865068921011,0.23466649173963716,10.23939468887341,0.10351064688093042,0.044417622216594954,0.04224479963534295
113,1130,0.02484099966083083,-0.027273757066075602,-0.0033807688486482603,-0.034137261245400397,0.07712040515819651,0.4296544255767448,10.163423505585984,0.08382537935530457,0.049565546689242214,0.07650263823655203
114,1140,0.02373553823634475,-0.02542613479888889,0.00726746047443546,-0.0324842166703298,0.24033070297162612,0.2977226869969835,10.691986353729675,0.11622083538374792,0.036157497448339265,0.06266424367658904
115,1150,0.026587830943414437,-0.04078690082757522,0.009042632153222787,-0.008324503539194334,0.1331572868611557,0.22232227099797308,10.498044644449104,0.1290945835279843,0.04898653275169803,0.09862732583543034
116,1160,0.0230124207938639,-0.026263674555563738,0.0154502401121068,-0.030318565514832585,0.31821816157671584,0.3602418686642456,10.274024406651503,0.08311087475450106,0.060356823188707553,0.048345416293219284
117,1170,0.016161641190762896,-0.0440269107310837,0.010280991080105356,-0.028341253682450385,0.2575214742439278,0.3776054645402973,10.571756874760448,0.07974511921803051,0.03767501120816974,0.07540232990441696
118,1180,0.04416575736148936,-0.017596233171278154,0.01568228133486496,-0.014717957090698463,0.16472200607636545,0.3075581116738951,10.134786977396368,0.08431533410078039,0.053428014468872576,0.07760407094158484
119,1190,0.02406716307659646,-0.041435715007875074,0.014973644735234668,-0.03952175686580702,0.3405097345494114,0.2048943711273674,10.251755536181182,0.10478718236881687,0.06128681809313183,0.09890518874150947
120,1200,0.033357531049439546,-0.03530630814981205,0.009343146129796137,-0.03153662938687979,0.5740082755409346,0.23815664925581684,10.179156618275218,0.1081602714819645,0.05136171588925829,0.09381408340091628
121,1210,0.0392401949252973,-0.045390925356356554,0.015686198400229216,-0.012660592633954073,-0.017383370873941095,0.21901110780166985,10.019563184406643,0.09865750251154463,0.050369343776946504,0.07442938210010278
122,1220,0.027973732284760976,-0.024494736757456458,0.022261120970121895,-0.02636976289161662,0.1966232166357291,0.14468412207612408,10.51356679195711,0.08683586570365336,0.048753949201916544,0.05863608422357933
123,1230,0.018744415432194524,-0.042298204836278344,0.006014943273721488,-0.027393681062242572,0.16213033413960753,0.3639614157871717,10.595160677356418,0.09838935155216466,0.056595391104152015,0.07338091678677051
124,1240,0.02540551886533364,-0.04921527154234674,-0.011729038828747472,-0.033121675363658426,0.15180876574150803,0.30082273430571604,10.18834504892701,0.08088187504560708,0.0570141150573603,0.05785660912274107
125,1250,0.0036947495009893114,-0.03979454182910876,0.005715044562897695,-0.03125875632355842,0.19429773598986017,0.2391084952987436,10.273738441641413,0.10910723235898243,0.045936707510022774,0.08903165022754315
126,1260,0.01521914001675197,-0.03754089372791122,-0.012215130810786984,-0.03650264301763662,0.363634080463446,0.3071903097758995,10.388210140516696,0.12092381279687402,0.058735539647346534,0.07055853160458743
127,1270,0.010908918989700388,-0.0435305556206585,0.0030588802799341426,-0.050473200447416045,0.4837625040579337,0.1805922776580524,10.28220952336542,0.13383437787215408,0.03394332387078404,0.09354825328644972
128,1280,0.008517488730174966,-0.056812475098490356,-0.014407438357611024,-0.040285443972252886,0.21046303545482986,0.24164121731116614,10.045354269637015,0.1202093491308123,0.03801780619378606,0.07640383446943089
129,1290,0.0024882354881468685,-0.05971766262314351,-0.023916634301908574,-0.04737027151501545,0.21779836790802384,0.3174649893326053,10.23827068650221,0.08919460470305655,0.045419745600213356,0.035716993340055556
130,1300,0.01601963720032892,-0.05358314474174586,-0.0017927494518113992,-0.046127936321543356,0.24244571371650958,0.1838969019142472,10.625488955162501,0.1083170189070117,0.04551622081903895,0.10037273978867202
131,1310,0.011154799633366104,-0.04148400356491434,-0.00651277182936242,-0.04217314347572955,0.3039223938996208,0.2024987855308909,10.421306470122065,0.09006228824002223,0.013405761090857844,0.07691399953468205
132,1320,0.006879354045958192,-0.042036396251045056,-0.01773867364455429,-0.04631587065185486,0.22029822799128335,0.17543876767604052,10.182420085096897,0.11524007439603047,0.0673308572789659,0.09684766610291405
133,1330,0.020178955823723962,-0.04191665019927965,-0.014654067156280589,-0.045857318241123726,0.10859829007922256,0.3413103011248601,10.333158522275605,0.10265284201059,0.05578853648459163,0.14197587045313612
134,1340,-0.01002135008405551,-0.0553509326431425,0.004370079484108974,-0.035647230617092046,0.36575130728677663,0.2780793980923279,10.339752769192033,0.11286727409349123,0.04981563535508027,0.07114624080910678
135,1350,-0.01765815037357595,-0.05787292649389557,0.0002913410973004217,-0.05288336759287264,-0.01319727548030114,0.24303448480032985,10.49968677338175,0.11173542623021372,0.047528165472885055,0.08935633187958203
136,1360,0.018907416816312608,-0.05060972089682424,0.006808306170011009,-0.04579035425468318,0.10687353710216882,0.3807064359539727,10.192962088335488,0.09673194234795769,0.04269770338581373,0.09447449943086755
137,1370,0.00835460792757665,-0.0634859940340683,-0.0042869795839281435,-0.03946233204149205,0.19405151068784102,0.22951497129083975,9.961868636197371,0.09480801508960782,0.047175884625378,0.064092664701007
138,1380,0.01467787377844347,-0.07636004975247059,-0.013892825288157155,-0.04355300789151236,0.3959258815680205,0.30261526619118184,10.137601940091454,0.10854773865018792,0.04314723466297517,0.09231076871130985
139,1390,0.008934792407292285,-0.07214956076224821,-0.015749601215604214,-0.04617934402014646,0.292531461102079,0.31448295613804683,10.364317942771825,0.09280676328477078,0.04394044987293401,0.06382730576531892
140,1400,0.020597444126792513,-0.0564068220762319,-0.0007915782297092363,-0.041045818742849294,0.12340831670684627,0.25217111047009305,10.389508234341749,0.08721307253185527,0.061180189656752405,0.10618426555676416
141,1410,0.011748056756223414,-0.059930817233841714,-0.01120967081322932,-0.057571847807006554,0.262132450534194,0.23207365264663365,10.390115493816268,0.11723943441206261,0.054945437308876674,0.06782874112031777
142,1420,0.01302727344543216,-0.06703671939684781,-0.02200557622238664,-0.04863064680071705,0.042497106803216056,0.3833431638570625,10.17345558486842,0.10637408595455382,0.037156039622980405,0.06647547559183106
143,1430,0.009533451179958106,-0.06983303724477832,0.009441978550562662,-0.029072316662098297,0.11289179816389325,0.18537029937238347,10.43300998788124,0.13800218657501964,0.06901607727219078,0.07800537288110031
144,1440,0.01941271409213901,-0.056157892409761156,-0.004379772567182955,-0.030441760640627445,0.4309610572007314,0.25133024992661496,10.423367941667077,0.074972870717817,0.041208494056437735,0.09586730645115313
145,1450,-0.01596634591641593,-0.05671127893948511,-0.03242046214307921,-0.051465763312127405,0.2723952898706954,0.31169186848443475,10.352184450149288,0.10985353394018375,0.05973715431708132,0.07687605044251698
146,1460,0.0178195664485179,-0.0629338462359368,0.0066770914732441605,-0.04307270993926656,0.326421842191913,0.14995563580443338,10.31740673602791,0.1397021567980516,0.04721575715519408,0.09200849258411696
147,1470,0.011604514641065634,-0.04819263544462472,-0.005685914641323618,-0.04422784440950844,0.44813622932064007,0.3494315593860205,10.21812042762868,0.07060380350395806,0.05257129654764685,0.08574359609266127
148,1480,0.018646716666458334,-0.05836477964928149,-0.008233532869672183,-0.04198282777876459,0.40862448722472505,0.29136280525881814,10.144699237445854,0.11549903450603874,0.06631246141825453,0.07184455375226165
149,1490,0.011203166882386453,-0.06188583090707323,-0.005424414925217603,-0.044995832109671466,0.32643867816286665,0.3745981950416966,10.429313578423185,0.12963937131356418,0.04581874553955117,0.03607627728573163
150,1500,0.019807537017656147,-0.06802292831204769,-0.0011604955108377533,-0.04441206443718482,0.23367057497060323,0.35596186805732877,10.308504434494193,0.06567198008148646,0.047592513963262834,0.11761006390565247
151,1510,0.015205647443964358,-0.04549515965515926,0.005956243599669874,-0.03532978496513401,0.4803125339474834,0.25117560049063886,10.268153079875056,0.08598822954048294,0.058187624737235884,0.06746452313060185
152,1520,0.01585474933438911,-0.057376970275495334,0.007566802467659446,-0.015323371048306632,0.3775328565697973,0.38117464139609747,10.418911433839037,0.0821653976942554,0.0582715606864824,0.1145510148652217
153,1530,0.02787291696764484,-0.04715942648963464,0.026096227418483244,-0.058371550349964434,0.25558062590482283,0.34759981658742617,10.36215580685995,0.12778496795365596,0.04964456749924201,0.09958176484708389
154,1540,0.022433025134003123,-0.05654658592798245,0.01249696561824372,-0.02947229162391001,0.3857393685799593,0.29951851115963096,10.117616429655493,0.08431870512711995,0.05829560897614261,0.08950491232047798
155,1550,0.02599102010845193,-0.07401008051617315,0.00041249759260235993,-0.02443477935873933,0.2924665294588203,0.25103051070746135,9.926950689315051,0.09949180858312826,0.041027485791039014,0.0745717177897542
156,1560,0.028877645645377488,-0.06424495338641571,0.006965330389043365,-0.041925483568325414,0.11868846525456678,0.3720414469859937,10.102317118697796,0.10250072480737887,0.06107230290529766,0.0737701481700868
157,1570,0.033897334603963485,-0.05129989947912466,0.02886293788281255,-0.010172353224571747,0.34665868357200913,0.3011042206123696,10.190257076534506,0.06456336702483317,0.06446496889076561,0.06978954540326324
158,1580,0.022499126376057853,-0.03856694392656962,0.012173839530349007,-0.021255443942050093,0.18477661609874946,0.26513356318159803,10.323471627623594,0.07029268493249004,0.05226032830971141,0.08211646829684721
159,1590,0.013444321911057846,-0.04115593528591423,-0.007708692633681522,-0.029330761409066937,0.2285098750888191,0.17203300571219438,10.109208423038913,0.07450308889980387,0.06440833042453327,0.1230313125624246
160,1600,-0.00231340426400628,-0.07234104765571617,0.012293367821952492,-0.04863426440180126,0.21197357089728827,0.2872743101242689,10.346004622791424,0.09370667082762013,0.0570343641816136,0.05880408626874768
161,1610,0.04315071968603826,-0.048460036632515684,0.009206905924779313,-0.023779474611449,0.300242067798595,0.3035710730903329,10.618011723461676,0.10349053712400225,0.05804883898310703,0.10692459398453402
162,1620,0.033482281548909094,-0.029699371887371553,0.016927785681262287,-0.02219480222042997,0.23948471956191691,0.3116171147374886,10.463752348716264,0.07555804231153916,0.05483931568360988,0.11960032359590243
163,1630,0.05037295671130768,-0.045985349006356674,0.011703839985330047,-0.057565384690666785,0.36353520663929845,0.35532242510275763,10.354914624309336,0.07941711013353128,0.053927759849942636,0.07017654916440565
164,1640,0.01929420002572173,-0.0572289155742902,0.0006508761505912425,-0.026592810629997382,0.27719465255872255,0.4136915455022607,10.304175284614999,0.06997558189870029,0.052621173921368856,0.060741336471583814
165,1650,0.026090229569876364,-0.06252168555779959,0.010762598818883425,-0.02556689003510785,0.45247300898162773,0.3950538751462258,10.010354751079584,0.06420336819167258,0.044408559114429286,0.08387433442409403
166,1660,0.02646535408819141,-0.041386453073721505,0.019400430674756317,-0.024753887370915672,0.5227031773883027,0.43674905652786083,10.601854219630233,0.02764670678278678,0.06004927140070921,0.10776630667651275
167,1670,0.01671102917584266,-0.050931882560180546,-0.00014232480174457187,-0.026469780527704975,0.3897707192908365,0.2545842289249477,10.27447876421898,0.11849500017441661,0.043385303312196186,0.13778746128342698
168,1680,0.03155924470161096,-0.04621095873319017,0.026231331276461045,-0.04087737413428591,0.48936577972588435,0.3862176343194479,10.138753938439491,0.0564977462121255,0.04442961399613225,0.08118460143220949
169,1690,0.020683485483525856,-0.05147679043980671,-0.005248521470161289,-0.03699406430762027,0.3362522827469265,0.38484248304857926,9.917501721068907,0.07031853610426511,0.058709974451126454,0.11931885713343665
170,1700,0.009888362943328016,-0.04024359088143379,0.009807212095733627,-0.04578090664699977,0.18597151599306355,0.43403924225440615,10.001984321171866,0.10272466946817259,0.03587991437420585,0.13902544677315057
171,1710,0.02755807994797657,-0.024625360883214098,-0.004687287915335637,-0.026672643180757974,0.2494311891189997,0.46254825632426794,10.071842507544453,0.1005025984599419,0.04831983312255108,0.11422493259866706
172,1720,0.036660782047332405,-0.05410225020591279,-0.0009835771308683086,-0.037525360940607475,0.3304605623538781,0.2872011728140377,10.239917279570605,0.09990961936363314,0.03926624490656031,0.08139372785961128
173,1730,0.032260890538769946,-0.06410280239910607,-0.0073492440108200545,-0.042300848276309345,0.23525362002763628,0.19722488633247348,9.98598395092818,0.07097453976408587,0.053672486653187905,0.08481214117493975
174,1740,0.03878916708194865,-0.05228081865747516,0.004815505449341447,-0.02422656234563568,0.08913647796897373,0.2702219616076644,10.40095657417812,0.07893303967560851,0.04251054211777066,0.08585226262005198
175,1750,0.01725532744466459,-0.06938428704635081,0.008844563047922386,-0.03994860363326246,0.4167325252130769,0.40747752804979875,10.440015453241882,0.09079244795568689,0.05101709890303323,0.0975744274781011
176,1760,0.016731831316390437,-0.06316140219063729,0.0001536163239435409,-0.0368141220203295,0.18501142730907144,0.423581502815798,10.255286395175563,0.10472433153395153,0.046986561025465154,0.11153558273219366
177,1770,0.02494547565340812,-0.07495050135720464,0.023089751586845272,-0.051450656061335386,0.45628529391747796,0.4704427791338943,10.552221380539178,0.08999150599862167,0.05738835131898966,0.07615666207816563
178,1780,0.022791242181738787,-0.0642394312037164,0.014116273248719198,-0.04169630470332406,0.4354423476254109,0.3117767209701997,10.149530894116188,0.060661418920073845,0.0497189379960471,0.11100210687333216
179,1790,0.009495403864438277,-0.06674678829753182,-0.009873065570750898,-0.03861621306409152,0.3948422245359211,0.25729684358467847,10.325312760830219,0.08659856358150154,0.06554722173996605,0.05609380092306394
180,1800,0.013724221581103294,-0.07287712039060855,0.009764626173680041,-0.05054760564026348,0.28081705478633595,0.4357035879574695,10.474911217107515,0.09789760586134182,0.03590988543084917,0.12237520179728421
181,1810,0.036341632520856176,-0.04829709122148289,0.0074930920910849,-0.030813269337639795,0.3597500034753334,0.43205719788422847,10.332824684606743,0.06462873832972497,0.050962616533715664,0.11127364469875957
182,1820,0.020187472814137075,-0.037908102390763976,0.026151109803652293,-0.04117583690229442,0.29751908683979555,0.2632250413790197,9.985571398741882,0.0840510427113635,0.04771544261148212,0.1032830466340712
183,1830,0.023047697864774216,-0.05905621925066499,0.013508304336835334,-0.030799237328411406,0.449563328051044,0.2691651494455255,10.139056749032266,0.07519800692116499,0.0637990218551701,0.08475837564413131
184,1840,0.032949163769084654,-0.053401665969943654,0.0050168217249090255,-0.03162307097253413,0.2950763312762892,0.3532390503314606,10.156028115385203,0.09198753238375182,0.029896477032366933,0.08655531095879707
185,1850,0.040019773699061734,-0.052097059116416516,-0.001238438022202748,-0.028972747240082947,0.32925780277076994,0.22824917293979877,10.340030669955173,0.09621569548142357,0.04717644673770014,0.09258392389941889
186,1860,0.01788802039182627,-0.06010964648333072,-0.017358621291924142,-0.03930039813278132,0.1508897539603143,0.3250084775440784,10.539798981794942,0.058446828242895266,0.05693462233141482,0.077703102745519
187,1870,0.025783711941134935,-0.06784680836621375,-0.0010419351940955926,-0.03513863201880396,0.18842596881435852,0.4508644447398911,10.001618670349167,0.06700719285893186,0.025886437257027075,0.060804551939789855
188,1880,0.03387040794812077,-0.05222427487131926,0.00826620454399885,-0.029538960429942356,0.19619933705282916,0.3612994325401888,10.25237262306092,0.07598899105385239,0.039849888128698066,0.10751100042758495
189,1890,0.0048865317424155,-0.05831444704374438,-0.0028309232573720646,-0.038828800150162004,0.40733633880522296,0.4070450408025013,10.32156353547046,0.049572673823220975,0.05382445287822122,0.10285932638143724
190,1900,0.0031525959627076022,-0.07064172947149044,0.0011299933884909626,-0.05612209278866794,0.41958641003754826,0.31346018597412817,10.184034947138628,0.08615515715842534,0.05529634874089435,0.07875246100312372
191,1910,0.04993412312801561,-0.04966551559698261,0.011686233047221137,-0.03798340613224532,0.28187854999140316,0.31706753876620186,10.084833473692939,0.061231059191988554,0.03308612381882514,0.08851429090011619
192,1920,0.026626347015753903,-0.02814472176864078,0.027088600751727532,-0.028006959998445324,0.22423311896487944,0.2420467017217831,9.847606193037514,0.0525603766396126,0.05198104994555381,0.13754164935178656
193,1930,0.02551877915490799,-0.07267055963330345,0.0007475735079898235,-0.02262947225040821,0.2289495751644983,0.3963546790613752,10.26976692069372,0.04750040280872046,0.04994836157181139,0.1196974982000397
194,1940,0.02852530976007503,-0.0725689812514952,0.003139206312942574,-0.02881703833173546,0.258580317694295,0.34307318794166064,9.909306219824565,0.055402773653680515,0.033068784589428094,0.04766109775089733
195,1950,0.04192566632337719,-0.06346188236977475,0.021095418070377035,-0.02419045386726353,0.3786395934389355,0.5172155725811457,10.194479769553595,0.04589188912782256,0.03930925963170219,0.10383555895473316
196,1960,0.04707948534039688,-0.040529431032071794,0.016062154756398227,-0.028734067980573815,0.3216035891628731,0.4371715826311558,10.2966706648065,0.07432223399463592,0.0625321581988357,0.09227734810435277
197,1970,0.033049634282323756,-0.04219723807165798,0.03823590530966467,-0.030246158116336533,0.44736280649857424,0.4132453351376153,10.175494650306502,0.07590886725472733,0.05287274362732387,0.07667307432022799
198,1980,0.04542739862535338,-0.04062040536703771,1.7114360524072766e-05,-0.022886992473246985,0.2845433338881066,0.3581598456486209,10.015258963075645,0.03888801207511401,0.05202445190879799,0.07673978344633682
199,1990,0.044895341873835856,-0.055197292595956154,0.020345481874830068,-0.03261465478175864,0.2013880628500867,0.45833274464753004,10.03066915692022,0.053554317785757956,0.05120102634325986,0.09057576761798927
200,2000,0.043129723198004705,-0.03423662005272578,0.03133012275671559,-0.005552955972516963,0.195084166374001,0.5368144559742912,10.105987761893562,0.040601468468036306,0.05346198234588568,0.072703183965531
201,2010,0.03806052677391983,-0.029117819894709813,0.05295120752669209,-0.00011920863787973773,0.21704978466489902,0.3044901869672181,9.75343525805861,0.06605705138116028,0.059398541533785064,0.04936676500453799
202,2020,0.030918166009997358,-0.020381251008867382,0.0365630143576952,-0.0176359341668147,0.33118300317797483,0.4606354585380909,10.130451090809675,0.06823702967291316,0.04259397140822871,0.0916303545624086
203,2030,0.04961945387026273,-0.027812060032485056,0.020103553093974973,-0.012395325721889677,0.4242176480257538,0.398923613191653,9.997231483252829,0.04454165141866776,0.0521741583887947,0.10730895654199087
204,2040,0.035485943254887145,-0.022207579417538433,0.04848989583072531,0.0009407172866400752,0.3078047807517645,0.3651530732795446,9.983262110590848,0.06799734143173777,0.04438767323560256,0.11581330142767782
205,2050,0.03930374063713743,-0.02980801318972678,0.046887249046657246,-5.975810637117839e-05,0.2684837383944123,0.43615698840619643,9.944750352200606,0.013866247457734765,0.0527154963259784,0.09214001118938979
206,2060,0.04319991326963231,-0.044521616160633874,0.02492850281023611,-0.013385038804186612,0.2984759796594108,0.16996886124431093,10.17126660452118,0.07325602018704239,0.035958865370415934,0.14740519182119294
207,2070,0.04180601201862034,-0.048096158577720524,0.029845312233778887,-0.014056631374524883,0.2946094537215291,0.4545255119383795,9.713632574059462,0.08291107076585227,0.04161665667411701,0.1167014767231593
208,2080,0.06356469110260218,-0.01891723186567212,0.0449155734245455,-0.00044652259665774446,0.2560421943163551,0.40004201961075164,9.710892284440755,0.045488249003574115,0.04598370465445116,0.10452937989614533
209,2090,0.06411046446524324,-0.04539900664787807,0.0396791725705292,-0.014610573800447304,0.22355871878667782,0.4381926243499506,10.279960123588506,0.024608161190436576,0.03786303768681329,0.11080281843058921
210,2100,0.06657384936657523,-0.028538155872264607,0.03367468197838334,-0.012453847916355029,0.0402907208310706,0.43292042788753515,10.138336170243022,0.033652333818083184,0.050201124218934245,0.11779607973239109
211,2110,0.05984859776654301,-0.016156652339770303,0.0435144111724341,-0.017640545316024468,0.10612442499918626,0.5445417888208901,9.826163878129893,0.045721718244204505,0.035624042927051056,0.07219588544130329
212,2120,0.0730390268792711,-0.021202134283643537,0.046091427196876936,-0.020721953116627355,0.3275895397405572,0.3486738948076553,9.990466482669929,0.043131474923703506,0.04946650388666209,0.08811808882627929
213,2130,0.06756978024703646,-0.021135398136794867,0.053975094350120836,-0.014412721060399607,0.2968397506043014,0.4365902638279982,10.08087497345163,0.03936610354436708,0.04858917727102535,0.10610107201277583
214,2140,0.06307506183997078,-0.010137063367925197,0.034052544305822746,0.01996745913671237,0.30694966787752775,0.45362900023786623,10.060155902283602,0.04193093607107034,0.054421261545574445,0.09559858283712437
215,2150,0.062386514649798164,-0.02321848685541854,0.06294105505987876,-0.022794863102144278,0.2842636751788937,0.3191276854777181,10.222773721017765,0.03624764684933989,0.047996224810531826,0.07955571948094091
216,2160,0.06645622748750805,-0.018732019560369753,0.046007373623564045,-0.012194502487535624,0.10569979450591926,0.38114984978503214,9.970486298598383,0.02777676718732932,0.044086709775635474,0.10475427832394858
217,2170,0.06269952151250373,-0.026515536240885897,0.024571019204980702,-0.017576889605475057,0.3521984262560894,0.37628367427556425,10.015570246410652,0.04238508260121671,0.05619431117417157,0.1027098229550779
218,2180,0.06641113491540206,-0.020112636617458757,0.03556443116202923,0.0021439784045294077,0.23543935078406225,0.4245276744524777,10.112523303580092,0.023763624910194892,0.05047986393598056,0.11009343224813785
219,2190,0.05554739223186412,-0.03709776834491158,0.037822326521358314,-0.014636134450396118,0.1806609601045644,0.37188250877256146,9.575916668726741,0.027655186558626157,0.06401907180196584,0.12944940692997098
220,2200,0.04654597000941763,-0.03962716243131503,0.025005825794186025,-0.005078190083042607,0.18513857857263172,0.2976261701729103,10.191911159203679,0.008752709976185307,0.042350484735934495,0.09788318504741841
221,2210,0.07771702207848297,-0.019119003185762474,0.04906968597864725,-0.0025158178409842857,0.24562882784002488,0.35627763598624124,10.366400163824293,0.015848836394230275,0.040365867681122006,0.1419402201602334
222,2220,0.06422332645321806,-0.04349865683450865,0.05153480885892562,0.014845739140779697,0.3050255372647447,0.4601447479452002,10.16945408271604,0.03914233438296883,0.04593914833029389,0.07159788263831444
223,2230,0.06342982722811509,-0.022125784853863982,0.060878969275120626,-0.030327063716446254,0.29140738963692087,0.42821508008713105,10.068033851962515,0.05291132817718393,0.04419333241753843,0.07008387266620833
224,2240,0.05619870656264775,-0.03691821310386224,0.03078867083988988,-0.007263135849839472,0.3378747333936933,0.404291965459442,10.062654920709239,0.023963526357108557,0.04722316646124619,0.12902468877786535
225,2250,0.057122874209332174,-0.0377801426571881,0.03008579654598955,0.0028571399195896907,0.24442032859480836,0.46059401632275065,9.815675690898036,0.044853791467536534,0.033061773133390496,0.10029098131775027
226,2260,0.042507675414003646,-0.017441527092904828,0.02357099275900309,-0.026640668621441443,0.294044806896539,0.4815248495183777,10.043252801896504,0.0306110656669455,0.042252053203858914,0.1266386894896676
227,2270,0.06943054994708095,-0.03237396320527626,0.04608212418399944,-0.0035151463344662614,0.22219683513094468,0.3758584480216187,10.302472163615722,0.0437857865786622,0.06578479983222905,0.11479316141963916
228,2280,0.043962812211704234,-0.04296500940853506,0.036706199867551886,-0.012487637962409892,0.21703746623166087,0.5025535317323222,9.767696444262702,0.032202714432579854,0.05336826606126696,0.08629027875148086
229,2290,0.08354002300259362,-0.013851542054662215,0.03665849222292408,0.026051438292218416,0.25932536442025894,0.4954590817151343,10.017762198645276,0.013118826703010282,0.028955095555822156,0.12203820565191546
230,2300,0.03877236759893979,-0.03933643608343643,0.049229561303697836,-0.00736432164896029,0.3585479087974145,0.4695248672680917,9.973151666716449,0.04143543231782366,0.04361068038885131,0.09858611341668083
231,2310,0.042870600076456836,-0.048280633044624696,0.028242085163146188,-0.018977909890068305,0.31170172231513765,0.4148087683197931,9.905600065710537,-0.0033880308383890598,0.046452532419087755,0.10792130426284033
232,2320,0.059982405441160264,-0.027000102115133054,0.02818952932539612,-0.014237530327977227,0.10146257934220154,0.41311782225684746,9.90661653705274,0.017665998375425644,0.05008036335873121,0.08698265461811941
233,2330,0.06094773838872039,-0.028193560565384114,0.03081520078189398,0.00017342546002167662,0.2597629612949369,0.33937222281339563,9.861072245489902,0.057461856259890684,0.043662503368298744,0.10835433587566856
234,2340,0.04447652345599205,-0.05286516838160296,0.03736481193260546,-0.0008697765333669852,0.21589919423557669,0.3520076996679744,9.918409138490574,0.029803761985325278,0.038054039331058574,0.10274653886320723
235,2350,0.05913298040959973,-0.03394252861490213,0.015368708359365378,-0.038237508835292706,0.12619799649021346,0.33647100456101325,10.105524878950508,0.012069270018745203,0.04311371333744709,0.10237035313717566
236,2360,0.03404772797384721,-0.040062089496690774,0.04522056094827501,-0.03159197848668981,0.11303517199226656,0.4615691503662518,9.984873291166334,-0.002351809424772939,0.03691136238520942,0.09913091202307293
237,2370,0.04746650884679897,-0.02501472121948043,0.0016783469144108984,-0.023384905869637984,-0.009161510223237246,0.39869424614379956,10.094389996549433,0.0601827924211835,0.042771747628491306,0.10926756933152167
238,2380,0.0662732562615719,-0.02248634996497474,0.04439810303750615,-0.004857130603836973,0.19351784207515965,0.3036752351897975,9.761304960108571,0.00875494218243066,0.04228605035424371,0.09212353137450745
239,2390,0.047161995032801024,-0.02985528624424629,0.04394022789639305,0.0018957296926409416,0.2717886237093322,0.34003661161365645,9.503934457499046,-0.020457506461879896,0.026456304317288425,0.05599164314059451
240,2400,0.05133667095638887,-0.02982396687988818,0.05318338711491217,-0.02663554248418581,0.25194896689161156,0.27632971023913816,10.007129789978498,0.022923514559790935,0.03656452568773109,0.1093270161529607
241,2410,0.060257342010091745,-0.04527632755392048,0.007000178964240929,-0.01561311348407759,0.33840704879973205,0.21081976762556712,9.862586551032209,0.026178811867115667,0.01999687160529186,0.1102505179236361
242,2420,0.034675863682891286,-0.028678302194888858,0.05786015546624985,-0.0064657409362345875,0.16255260363594157,0.4252296860695955,9.523486625504452,0.049159464343502955,0.0380709066698672,0.11683714082920094
243,2430,0.0772659909839871,-0.024666497538601645,0.05870811276691957,0.00895232012015952,0.18975452607939622,0.4112947516323078,10.107417404796129,0.025899285318552144,0.02051984615087536,0.11048088639101888
244,2440,0.06258107572610146,-0.031342680195359726,0.04951064610583171,-0.0003129503796974707,0.29487077416493457,0.3670371839042966,9.81279763224151,-0.01653643473939843,0.04446764545506143,0.08404689974610116
245,2450,0.05229530191289037,-0.03856774463536504,0.046612677828192575,0.004826791587570356,0.18528813453168042,0.5116616299497591,9.821326912819952,0.02785223572992193,0.03434127039682863,0.1497361906697906
246,2460,0.06065441355724325,-0.03879879499224057,0.038146508770769944,-0.011272179289137155,0.261160164283702,0.36497391973004834,9.927600607147093,0.014806975870742194,0.056099606564635064,0.11101546233464786
247,2470,0.07000232964662931,-0.021031109025439393,0.046192281867442384,0.0014064250004671049,0.24613688030891206,0.379604027714195,10.060372845858565,-0.02651630015080781,0.01734815853322806,0.12416559208616705
248,2480,0.051087154613985754,-0.036372046441176864,0.025383983656126125,3.64344204817086e-05,0.2409598795092978,0.3492450682741217,9.83413041849509,0.02632074102113464,0.03577018442391284,0.07210903944850232
249,2490,0.04681696111934784,-0.034481362318494316,0.02643848358803187,-0.011565334410542687,0.12069531322431395,0.4213063541796809,10.009724131271893,-0.06403324793605797,0.03404839221487552,0.09939521645906993
250,2500,0.07797102802651784,-0.009557727031507028,0.02510499943440215,-0.01724370011491621,0.12565413196404307,0.38035676806934715,9.898068722027404,0.0033387106312853052,0.04885271322042632,0.1241039823406484
251,2510,0.0757182156374666,-0.023232377078822426,0.054588731523954034,-0.018368064170529712,0.2917093319700974,0.48517869599617724,9.842956790643363,0.030572279029038002,0.038894757547764176,0.11401225377569246
252,2520,0.050132883353177504,-0.01744542960284124,0.034920353361930924,-0.014370024226832697,0.4549334094320011,0.20322096556409253,9.41444965389518,0.013972027819711956,0.0363789328549445,0.09715903712234925
253,2530,0.06746129343358606,-0.016390305241988472,0.06653326397451423,-0.009175384619713005,0.24622527096184083,0.4896666845897138,9.880676489372636,-0.02099170254782682,0.04505258106842689,0.12469260770510654
254,2540,0.06918160835700246,-0.008457984790476412,0.045640303778168245,0.006410546974490379,0.15425575972491845,0.4276636031706785,9.546505996560667,-0.007251977491801232,0.042422494287694276,0.1277149437592908
255,2550,0.07467638413217838,-0.013579460339296487,0.06738270588816084,0.027531748674906126,0.34416027679094285,0.36408934389033437,10.216785732462629,-0.008734573567074615,0.02466480115261297,0.04983508195411523
256,2560,0.09017282810298538,-0.024133490981326503,0.050296899512316896,0.0025641737333669265,0.2562184182014187,0.3810486253915599,9.461517630220273,0.018373024053488955,0.015363345010985657,0.10214528068278177
257,2570,0.06048389517088497,-0.005960094998576148,0.04439542454947783,-0.003462310943882411,0.1888587151445766,0.5518081124844888,9.895639549005944,-0.004091071522712246,0.023987594798184405,0.11129136497188659
258,2580,0.0842772685388298,-0.026673674147955684,0.058482943085411424,0.01065477671371443,0.20327980311139307,0.5183345981639171,9.700710793242676,0.013847884230314075,0.03305698629034732,0.09535158417802371
259,2590,0.06992892527945604,-0.02198704472758355,0.05144988033705082,0.0008443804452729076,0.3194532072319859,0.3850479970696664,9.58967142906659,-0.012506137290700789,0.028617660842397415,0.06993925254344388
260,2600,0.0971906917848696,-0.0371477154751478,0.05789972030990742,-0.007307395215749031,0.47871072313390567,0.3883283380674926,9.679086407786295,0.021453668178765747,0.030006296816851005,0.10300845753638593
261,2610,0.05993495978355004,-0.01904922615478513,0.05998544217278867,-0.016275155614738843,0.2959238573994927,0.35939052255892034,9.955220222355056,-0.05330288235983398,0.03696981012477667,0.12994146077729213
262,2620,0.06300566650953868,-0.019599297900062082,0.07504142704726173,-0.0023132569692713174,0.21923622636099668,0.38661714408410486,9.450960699028396,-0.04015226966171571,0.026238001636190708,0.09110497029816349
263,2630,0.06113358749794766,-0.013973787347481517,0.03542820388668795,-0.009561459718205363,0.2813382476087532,0.4617494838718492,9.78732735593736,-0.010666719007818064,0.02841459405792545,0.1227302631721994
264,2640,0.08583692162891766,-0.031000653462070572,0.05022312897593824,0.0241918070834715,0.22840954820437023,0.37341941867047906,10.129921591495773,-0.009860466439829125,0.0201231748537219,0.09412945854632168
265,2650,0.05999940873971376,-0.022724267762166687,0.032956086185247,-0.005410332631217717,-0.04450619524265775,0.2690708749030478,9.709960362780413,-0.02968083070118581,0.03897365054433914,0.0771417420184878
266,2660,0.08332679940899482,-0.02315772630739767,0.0662085185275493,0.012896477198216098,0.25357867640982934,0.38964085641800295,9.997724872978326,-0.02357750756444212,0.021995338712550116,0.10840053849213387
267,2670,0.06274118039897153,-0.030255153691560257,0.03694917512846878,-0.00924776900979732,0.25161146096990256,0.44154319632920275,10.161307934865961,-0.02932613704407734,0.01854924204042768,0.10138807244303111
268,2680,0.057749040088601176,0.00751973934157551,0.06279106943734003,-0.0039024349671245833,0.07876906769879168,0.3904360457839589,9.152822884016823,-0.04490656895364364,0.027473380291744117,0.08520525552393451
269,2690,0.07314700655693568,-0.008423885406421274,0.04420563484316185,-0.01590511662704055,0.15113135827577157,0.42039074224684647,9.399560097703212,-0.011721282843577022,0.025054374360450462,0.11056927673986408
270,2700,0.0787373439318746,-0.012953901362901973,0.05699866314531294,-0.005731854587646325,0.36947504284280597,0.21487336071445098,9.549804184690164,-0.06107551599060365,0.030983643573073122,0.10387590636153217
271,2710,0.06793300360576272,-0.014816235834468418,0.04687375091542698,0.0013117966752478419,0.11847854239685862,0.46405189569409383,9.634709498638301,-0.023624444098242794,0.010268227621019758,0.1290004544692527
272,2720,0.059340924785414945,-0.020856212439751318,0.035071552022827,-0.005311078650154453,0.3486066026052803,0.35819281021063115,9.591676658005976,-0.008719810381527342,0.026304400186970184,0.11605648707180252
273,2730,0.056523207700463846,-0.04682428678229657,0.026771732919211894,-0.0233326746873108,0.177063173932931,0.4785372835330125,10.15829117061551,-0.03368802522513991,0.007414399502662587,0.13175234515883352
274,2740,0.07632964853484743,-0.04534441942483046,0.05089951164122609,-0.004977825007325908,0.3502195984821724,0.5256200930638045,9.807179214038658,-0.03887229378790729,0.01479407852227847,0.09996705626842885
275,2750,0.05068408341064585,-0.018656213535527003,0.05234350189817681,-0.021892028453807093,0.1434612073222448,0.3321433094107919,9.846782998044151,-0.02394815354709147,0.03190399135774025,0.11378282567952791
276,2760,0.06699219125553975,-0.02903381353747403,0.058936004133716066,-0.013307433568270233,0.0690874328964755,0.4173882274793946,9.603813746334055,-0.01427547930445695,0.016517324570297684,0.06374109755255239
277,2770,0.054668306896835474,-0.015198937185463484,0.016512560279275446,-0.019798016619420294,0.06440071183667084,0.47695662009551576,9.6928781391809,-0.027231012108891717,0.024484102464957355,0.12554886444967994
278,2780,0.05682550532781597,-0.03030843155883585,0.030079856072312786,-0.010027669821678617,0.10042292403554373,0.39699727573795496,9.38287983590499,-0.0357834151653788,0.02816914076615561,0.0802744110035122
279,2790,0.04617355730383098,-0.019492035856781765,0.027996123547105886,-0.010943554299104853,0.32000009676379093,0.3004461413489248,9.716988933108704,-0.039423688643400914,0.011112119354245616,0.12475501077882464
280,2800,0.06823512126055509,-0.02295020349460844,0.03475177833701258,0.0033935369930960958,0.34027366000485193,0.45515431890269575,9.362058228043331,-0.020992837472275386,0.023492317799200604,0.09278748441006593
281,2810,0.043358173942005675,-0.026129928068551488,0.03403693118335846,-0.02632191732695511,0.10073241404064134,0.32691961098847755,9.427999566608882,-0.024881096922009446,0.010026729640507959,0.09793982144515638
282,2820,0.05214574597336799,-0.04628492789849322,0.03177024846483729,-0.008878927551282742,0.057303219645251174,0.3631057870610739,9.423286929573337,-0.029929166544924807,0.015405664049339808,0.08060624169520315
283,2830,0.05298980590473732,-0.03223500386265318,0.022485559521155163,-0.010638058310747855,-0.08679263026149253,0.4739587360591001,9.73079316761081,-0.0071548937383337854,0.03505012325498417,0.11732873704925936
284,2840,0.05486984063994845,-0.06156882910915986,0.018415100572371484,-0.03687399079171544,0.15372566769114637,0.3959934752055508,9.617143531238595,-0.036281007645557695,0.02922439353675965,0.08983163389333221
285,2850,0.05744077530826383,-0.05363458278602457,0.034466277342683524,-0.028018539173659204,0.2044124682009956,0.25125379848015145,9.31472153512445,-0.033698131388889066,0.014616947344795218,0.10037394381324902
286,2860,0.0381152523745232,-0.027219671110152326,0.027417992334118742,-0.004431389634720931,0.1678364018430957,0.3946203005380974,9.647420745356573,-0.03073388047852646,0.032762788809012906,0.12446190400895427
287,2870,0.035114247347715344,-0.04548152576025513,0.01900281764871716,-0.0152426460739024,0.2574753827029104,0.4203681697700017,9.399530456324069,-0.05306942655671894,0.021228958187872335,0.08458767723929494
288,2880,0.040160294143929756,-0.019659324596871502,0.03969249781874723,-0.03892591116946407,0.1701562562810901,0.3783100307327527,9.914174098187107,-0.07341855351236382,-0.0024125778808392166,0.1266529029151446
289,2890,0.04645263467843827,-0.05093034687137027,0.006871674659704764,-0.010915106690570024,0.16622527644674376,0.473957217299086,9.204151843831802,-0.05476809229652042,0.04635191101410597,0.09804593292014645
290,2900,0.04689701031751977,-0.0481573060831632,0.01355352427260236,-0.01484455377714867,-0.020128898468096068,0.44468425272067114,9.35850654942962,-0.07630131061823664,0.018654085268032392,0.10607011233831627
291,2910,0.020861702562351626,-0.04588723156739793,0.0021001520592330396,-0.03590305442805477,0.2259121531966951,0.2913439588817493,9.870680449071934,-0.05493026317695584,0.01680198119934089,0.14545587576008812
292,2920,0.03942221412750836,-0.04590153539659615,0.01780405028036576,-0.01731998643020098,0.04010908222635541,0.3300175000968216,9.746355498042059,-0.03359504229294426,0.022484594681030062,0.10171075584614053
293,2930,0.04968888566695237,-0.046011543628035084,0.033885965581479,-0.025281940096333624,-0.07233663550960945,0.24725219443321356,9.738302009749775,-0.018056337496147948,0.021746979287868156,0.10184645984998039
294,2940,0.023882882187951687,-0.060994529792235255,0.02103433769683722,-0.02091182459210706,0.19054505067487604,0.5329677985000938,9.501043146108868,-0.060947543650841735,0.013467076674371421,0.08787319473016637
295,2950,0.038304620920180846,-0.04839850701824024,0.00791042518272288,-0.04129431174756608,0.07686773670987387,0.2926824090509796,10.042835732286065,-0.05458155383358142,0.024365723384756097,0.05153398853202046
296,2960,0.04170278603957136,-0.05172196197515422,0.004728494893880653,-0.015658434782266587,0.13858526045524366,0.47632195438771396,9.821325744097019,-0.056356098253305856,0.020878999534771552,0.13295252702532864
297,2970,0.04860279603279042,-0.043388876865435716,0.017108839669949662,-0.024075230610304907,0.21190011511548035,0.42451338279931417,9.828664133496716,-0.08032634330298521,0.006360372064132478,0.08519105228468722
298,2980,0.04020635010757601,-0.0407563727661162,0.034825219785405655,-0.007882689370188939,0.021448669822674835,0.45242558095774776,9.241808583912379,-0.03348908940231611,0.017480860923943888,0.08380339140593343
299,2990,0.040903269701591735,-0.05233675468882314,0.03787497452385498,-0.008470954232339529,-0.026454212139319325,0.45738643634631376,9.685814038450689,-0.02051703510084927,0.04154989469808633,0.08958426033084951
300,3000,0.035644398835004976,-0.02902386215417436,0.03610451647707333,-0.02850606735553895,0.10313743208294675,0.3959248879688871,9.632641641880053,-0.08060991008972838,0.02843455133981056,0.10395346884004306
301,3010,0.05652039987845936,-0.042445738168920624,0.02213309045361345,-0.010913492647994155,0.0825966602711345,0.37592462231659046,9.34914351955616,-0.07543867385687447,0.00949702398552403,0.10273447718016138
302,3020,0.04032379498508511,-0.05915661122002373,0.031194405593386494,-0.007154584016159092,-0.026925885038686564,0.37502725752500776,9.539749649230759,-0.059503706550282205,0.014737208625269275,0.06592932546502339
303,3030,0.04576455776018533,-0.025597169568630368,0.03476815221986195,-0.030034593665585023,0.023291431277540083,0.3981468345711876,9.379167288785482,-0.03729597757965848,0.016688252197625143,0.1310832214872631
304,3040,0.03861676965070609,-0.02351347463233614,0.03332579072983389,-0.024904911347817527,0.06863215912307746,0.3407136860085075,9.702208763100284,-0.049813782750543295,-0.006164002425675122,0.09177234308077982
305,3050,0.054750890389306306,-0.056264023200351856,0.011738939955050312,-0.033702573364833066,0.12996684540198045,0.3695156353349684,9.592561868369968,-0.04456953631963636,0.009986183422993447,0.12160617575466859
306,3060,0.06501887440609196,-0.048520426360128974,0.031126731826326977,-0.030230310848891318,0.2206586066162679,0.4607183674310619,9.246955486425577,-0.026521713970811045,0.021303080052307764,0.1124033688189409
307,3070,0.03564076929218311,-0.03208212215903445,0.041475182558763354,-0.02260348577272208,0.2337519564697792,0.40396761190059227,9.343544031620716,-0.07735301369352186,0.001730133091905537,0.11378752944394184
308,3080,0.03544722657327278,-0.02707353835706532,0.020274468703773047,-0.028624993191008783,-0.02477377425856768,0.2912096862835009,9.634112152288994,-0.03849695771484839,-0.0004668841024381854,0.09027320060674793
309,3090,0.05658547628936312,-0.0463008729425148,0.029313313824486268,-0.017117646840005,0.12248651447799719,0.3065555902135925,9.760742636880899,-0.07828675708843294,0.024293719195598824,0.11994022234381375
310,3100,0.01884824960440206,-0.025619154718875898,0.035211407828045244,-0.014744530598790837,0.16698331654417858,0.41703056763521795,9.299318357760539,-0.06126805657196734,0.009577616972427335,0.08453731873881815
311,3110,0.04808257246321215,-0.03145838390124992,0.025136441330310694,-0.02594501601964852,-0.1881735457094218,0.1552954089649944,9.34216739786025,-0.03563664954837465,0.010613588684894405,0.1156108161154487
312,3120,0.034744241336480776,-0.0402387137508115,0.026897591005083935,-0.0189370380924376,0.0610421192406672,0.24219543703723156,9.68812736804731,-0.062453722140491025,-0.0038770392598639607,0.13421619726891929
313,3130,0.037138782043401625,-0.008649955460254079,0.04714160992965172,-0.010381505134504684,0.1561409478383913,0.3421122703015316,9.34360401091724,-0.07934246308135484,-8.988222770342502e-05,0.11542423248851011
314,3140,0.040710903962179704,-0.02655119905154426,0.013057372675269976,-0.015499018971035804,0.10324658096535048,0.21143000820712454,9.700624439248958,-0.07558120132144944,0.012147455622328395,0.10336891902627057
315,3150,0.045578534053847444,-0.04435780274911175,0.025421466421310896,-0.018870714936216663,-0.006805640870397589,0.3909387302346814,9.651319766377599,-0.06674596553124855,-0.004020180932365195,0.09218981285322671
316,3160,0.044720697698433384,-0.04115794794094448,0.02931737574143383,-0.02522650530626638,0.1085535271402814,0.48590824532136,9.78231039791576,-0.10930615586229309,0.014545973539097055,0.10786733977373988
317,3170,0.050248647465370055,-0.034262926756637765,0.01630072760802583,-0.004413784659830288,0.21861916564792647,0.3993968537746009,9.661189870212084,-0.06074316385423096,0.008777543165749125,0.12327295992089113
318,3180,0.0725929475672964,-0.03270567999791878,0.03529525654207787,-0.016406930549027934,0.11463117966009212,0.42963272782462864,9.392310806257871,-0.08853630998173724,-0.013467553090436506,0.1288343336095591
319,3190,0.02896008714297683,-0.05526657529730722,0.022694286802353726,-0.03375837485283219,-0.05367106282879825,0.43296878344495804,8.881471617058201,-0.0428293255719689,0.010493682597777767,0.04944649619477512
320,3200,0.016902024059714214,-0.05981016296621647,0.02572492969679329,-0.024052142419935592,-0.07138964378951615,0.40864373321621694,9.83527943920368,-0.09131138275957451,0.02367333417937657,0.10780112212880466
321,3210,0.022878033118459557,-0.049141238603772563,0.005710360470321675,-0.01911298455640409,-0.14976070640970907,0.3455289848307909,9.288195040804618,-0.06673597107368141,-0.010405160571971493,0.10999998204553987
322,3220,0.02444292279797495,-0.053612387805324964,0.02512520528504742,-0.030722769043528983,0.013249630875249094,0.36662452968485565,9.733229459483827,-0.07742628202166983,0.010284548528433506,0.11402249416103295
323,3230,0.03004050470900782,-0.03269785901656726,-0.007381914164326393,-0.03293956080756939,0.05035356692412579,0.3358725804723617,9.280000526372586,-0.12352675703154267,0.011483924314840993,0.11745896330660441
324,3240,0.030666837023663587,-0.053743612259658236,0.003189830984197929,-0.015952257867185834,-0.09750200566602796,0.32608084365978024,9.42866387787905,-0.08106890054230567,-0.006507228761464483,0.08343472982914758
325,3250,0.043881911871611404,-0.059740081087425255,0.005524175354277866,-0.015692785099711733,0.014190549724427537,0.3335547330115474,9.465609714474116,-0.10182146021436074,-0.0021327491131229873,0.06257591354948756
326,3260,0.028506870418743117,-0.059417653900022044,0.0250012256165022,-0.03310887986393076,-0.10979083732492667,0.46083362359474167,9.619302999575318,-0.07987940846504572,0.0024721858894109217,0.09858991148949064
327,3270,0.03210937010723826,-0.05643526944086709,0.02148383397906311,-0.021227313046614602,0.031970898924571944,0.31726266878864345,9.15159533403638,-0.04169317562240541,-0.0028045895565983214,0.0789083829492767
328,3280,0.009232085078601512,-0.0584178088387724,-0.005416070404327003,-0.04616560296108433,0.044101418171441274,0.37265003300149707,9.374654062068704,-0.07236430061931298,0.0005928235295537944,0.10546458739381454
329,3290,0.007409491425325732,-0.05821818402150412,-0.011108237346674349,-0.04304777872882437,-0.0013276647392235792,0.19236304072823054,9.62290845890904,-0.05179623630057408,0.0016929420857552308,0.10807043911520724
330,3300,0.021793866997700733,-0.06706284944131975,-0.006085859690446463,-0.02156848042982141,-0.0018063537655830346,0.29141404132967974,9.503383613016151,-0.06380964693766533,-0.011634560651357111,0.10165300520098262
331,3310,0.0008895356441799025,-0.06741136005739386,-0.0016920143191450215,-0.04082206942106683,0.031780780279795834,0.27448902585254137,9.061258911809059,-0.06404416031788657,0.005437169910891952,0.11027024658530478
332,3320,0.010447955590466677,-0.06081145822715395,-0.017854364689767335,-0.03967429912601574,-0.015630003113636867,0.2576031141647984,9.207824876147559,-0.08697876700336574,0.01742114490210416,0.09558447782116886
333,3330,0.004497495918091437,-0.04696925821593392,-0.0066177039898645965,-0.05227140276600828,-0.013440415899463418,0.25717939252775807,9.303467270031476,-0.06500825068048409,0.007660096628933313,0.08317192062315999
334,3340,0.013728791216056387,-0.060162888930839514,-0.00521399479044713,-0.030329643113133485,0.04008156616041308,0.40937485749769115,9.540856315940118,-0.12464008007407058,-0.002223111861376275,0.08194501981731124
335,3350,0.02624673360736604,-0.06693490757884066,0.019400177929268975,-0.04861355044509334,-0.0006476363296046023,0.20565019023167116,9.582633175637273,-0.09199504319456328,-0.005402672267834578,0.08215691049926835
336,3360,-0.005873564013918513,-0.07080011960611368,-0.00582352916595516,-0.06365525671229784,-0.058732856933822776,0.24501933925076408,9.243419447430407,-0.08436838591294751,-0.006595371059828667,0.07571348472839903
337,3370,-0.010705635442108159,-0.08302176870880888,-0.0202309484326723,-0.06805412070766122,0.08889850133426606,0.34854785715939623,9.263306582362285,-0.05856022154679372,0.004949606230959617,0.07753738784852748
338,3380,0.013917096809254789,-0.08114384565982455,-0.014151185262204127,-0.05631677130924148,0.007236851199661352,0.23449705774661275,9.007792489015648,-0.0893501084571921,1.1490566272333129e-05,0.1075305834920914
339,3390,0.0047554598158760075,-0.07745728245520758,-0.010799250583655577,-0.042648577928374384,0.06465980197948973,0.30531537812037857,8.854698811972217,-0.08100473609202578,-0.00469445819788568,0.1003495586973481
340,3400,0.01288365932713378,-0.060489319292078285,-0.008890960513551961,-0.08189301490032651,-0.12492229803026582,0.3575533811602456,9.489059281366824,-0.10195200371483604,-0.021161499732535154,0.09314822342057148
341,3410,0.012709542304076333,-0.06345591176550057,0.000860026988822947,-0.053523742185230684,-0.27843653765640825,0.2503081913322519,9.410365611964245,-0.12315709550472777,0.006011018187893246,0.10614919603534928
342,3420,0.019933693867964834,-0.09238299488376675,-0.00717736389682702,-0.06383806388319711,-0.06377540292131001,0.2396376085224226,9.174627976559476,-0.10981139723567646,-0.009452213845553021,0.08229159511009751
343,3430,0.0007444168664499304,-0.07607086354739057,-0.021940694692337902,-0.07165428133777525,-0.20622926274229963,0.3749744727140838,9.736948948840096,-0.08312972871854857,-0.001908669988021354,0.11027093183704652
344,3440,0.005251663817694487,-0.039338485254713174,0.005529290600163984,-0.032313669273262555,0.05045667935965097,0.2654306413031312,9.389943799675072,-0.1358257627304344,-0.0015243393812903387,0.10012513297196676
345,3450,0.004097157236194918,-0.052787881235375075,-0.017899184918075958,-0.055878747591262344,0.07900555847427532,0.506608859143132,9.20840621956945,-0.10669205120269483,-0.008047817941253758,0.10261119124603828
346,3460,-0.00374776972569529,-0.06564628104932829,-0.00750351358817988,-0.034460702710528854,-0.07097872891765078,0.2649062162028503,9.546912181170518,-0.0862441204824575,0.009401122093748519,0.09539511356073144
347,3470,0.021974304526747424,-0.0710117827016146,-0.002247415173729741,-0.05568456831661307,-0.12528773726869688,0.2533901115577257,9.61565896750562,-0.105962169171631,-0.0076315125981183275,0.0741300397131147
348,3480,0.02094445594145231,-0.05628996605656822,-0.004044593054431033,-0.04238255007652531,-0.10884685468517002,0.3021517546522401,9.280438025532392,-0.0752602882846084,-0.014055719035277574,0.11791885672047392
349,3490,0.003470613830313267,-0.06228022984890013,-0.00916248073715915,-0.03792620173368928,0.06990320020840404,0.346211640642956,9.119708934218504,-0.09685135127404038,0.0021942534531951266,0.07376745061434423
350,3500,0.025786366400287093,-0.0607836951058207,-0.0009842789606888964,-0.036216033004308125,-0.016880750259328073,0.2875656186159394,9.487184419912431,-0.13381479557476106,-0.006224185281800838,0.09682654772980881
351,3510,0.02483708925272752,-0.05998153724078031,-0.014915726985668194,-0.029875609607853848,-0.05770965109270642,0.24199708477746062,9.179195668256247,-0.05546274947776856,-0.012878086489100406,0.037431132950806564
352,3520,0.007881625049698512,-0.06305019643113859,0.0038069398050253975,-0.06261745157554813,-0.0263533688154719,0.21531171508369198,9.329058500146905,-0.05793286071068981,-0.019025033236788218,0.09184942935748142
353,3530,0.017761638790249328,-0.02796836856887079,0.014718342407408715,-0.018714034425269213,-0.12253002568856869,0.33744521473835465,9.138580314553897,-0.09789527413803654,0.005512077198000974,0.08195878946915626
354,3540,0.006123544760584866,-0.043372337136532865,-0.012218220200289839,-0.03704071034073518,0.11902530742352332,0.25036152906845527,9.33048452557732,-0.11000564064253547,0.009942522926205146,0.0830246187591148
355,3550,0.02857156328247737,-0.05702351668650052,0.001460668232841673,-0.02445296853965927,-0.13170830492476693,0.26338094887033103,9.22460362122137,-0.10277121987720576,0.013118357367831894,0.07715809253470661
356,3560,0.02143251875274383,-0.04887218681736653,-0.002704945810870305,-0.037911877877027274,0.08969886670570269,0.29009529222556635,9.257865448773673,-0.0966265488309835,-0.0054064427228760195,0.1060070520577998
357,3570,0.012757498212135574,-0.038619146384614875,-0.01409073353019789,-0.03520261118855601,-0.2588086157783763,0.3589312114023722,9.713566571361973,-0.11179322465652118,-0.014243304826816225,0.05500263093946899
358,3580,0.005811608110530095,-0.04210215972015744,0.016032348109510656,-0.023947365156973828,-0.07304982024625127,0.38037335879125656,9.542565076387914,-0.12843944092828152,0.008396886657099076,0.06957378765627793
359,3590,0.001859337727164975,-0.04546478586265058,-0.009051583686913684,-0.0580598853930098,-0.06974182690226612,0.37004284771845924,9.341187981269874,-0.12516996401314917,-0.003132722275183278,0.08363173316776944
360,3600,0.0269967741149825,-0.02756067962541595,0.014694205948720241,-0.023332644084540506,-0.05426724851173419,0.47246866715611224,8.985018260475927,-0.10484845749944305,-0.018597351381555872,0.07144942627008792
361,3610,0.024954730109910568,-0.04674846541432137,0.00904690791921967,-0.004430830745558879,-0.24304582667350455,0.4027593021602173,9.414639542962563,-0.08050143728143329,-0.006403299824603253,0.10869477568817765
362,3620,0.0274859183933452,-0.025662090775737622,-0.002196032810966078,-0.036571924515117135,-0.21686401974861644,0.33104664443349335,9.207381146490825,-0.08982286249900555,-0.026962304760788244,0.07358112108151958
363,3630,0.03524361475246257,-0.04123053016482141,-0.0012818372551720077,-0.027659804278146703,-0.20695404818929874,0.426521854118817,9.601045430558518,-0.08981723391381105,-0.009157785852163279,0.07785838526943845
364,3640,0.026982764191966473,-0.03017092302410354,0.014347838443829903,-0.026186709326811893,-0.09958226446733269,0.37145737604255447,9.214104366824765,-0.10425967559732535,-0.008824078954493064,0.10323246577312248
365,3650,0.03422364675147194,-0.04522754675579658,-0.00849100369042099,-0.017770608001456085,-0.14515434760273735,0.25152941795742234,9.370818142968927,-0.13903378909422648,-0.013939918981923162,0.06434217641032014
366,3660,0.0405127822106446,-0.05049731975044273,0.020922982138591888,-0.020022443857692657,-0.04746360219429261,0.30838399670700967,9.611796547102902,-0.06512318022103866,-0.006395061146657759,0.08518425295349526
367,3670,0.02717418482242719,-0.04475331124823581,-0.010198562493792617,-0.026345831848102998,0.027461292206660423,0.3374989959270105,9.43545838327078,-0.06077949272569166,-0.006493486977128801,0.08584762603851012
368,3680,0.028426854655709023,-0.031011157470329804,0.004756109386943993,-0.020766520701427475,-0.17151579767522301,0.3472420380957524,9.227930773942727,-0.12193013667285087,-0.02134964036170979,0.037719064419815616
369,3690,0.022063827964661952,-0.0536409827914438,0.02527610921207891,-0.022199552598623273,-0.14175405788197165,0.3110315755405441,9.18037317903725,-0.1430994779959817,-0.03331111142631211,0.0849618090246811
370,3700,0.01585276395908911,-0.0613106947576149,-0.000717072557782996,-0.024640105559809306,-0.22374135413357868,0.29603767497121186,9.559925768756882,-0.13466387121651008,-0.036993841230324356,0.0715603090257132
371,3710,0.026010679646236216,-0.052511117604111035,0.005773704174810204,-0.009960748040646183,-0.06937381807503658,0.2096155180908087,9.35812336474122,-0.09970671445516939,-0.010312944190795727,0.04198294846681259
372,3720,0.01863499897341108,-0.03724453141968571,0.005764972066916352,-0.04050156410322471,-0.07496041631606357,0.29487051875848896,9.437504198954285,-0.08127714782904148,-0.016862959641150407,0.0836855651190834
373,3730,0.009475433258467341,-0.0425174133529941,0.004890329430319146,-0.04934720977612986,-0.051237208352368224,0.3574462286181743,9.183964938782468,-0.12585025476038597,-0.03670818542495691,0.05324165071756581
374,3740,0.011850339151166744,-0.053313357755082544,0.01616297329243864,-0.021453745528030588,-0.12776580543447832,0.22612602039491556,9.602225015995325,-0.053959557901339224,-0.02628084463414246,0.05486447005137594
375,3750,0.008781351693002967,-0.05022582589905726,0.020864938939217016,-0.02625267301995624,-0.13372144833353608,0.3315481339793603,9.21373311630988,-0.09926664173950459,-0.008271390397210893,0.08760503027828104
376,3760,0.021989513959964794,-0.052593133933776307,-0.006282819330571869,-0.025732193846387377,-0.3057841883175548,0.38328402381040183,8.986233115022419,-0.14830690934179905,-0.017932333231217568,0.06543568051902589
377,3770,0.02847904290080426,-0.04193920793822856,0.007688464996037049,-0.017188495562243396,-0.20673333690737095,0.295141721622639,9.292810303560566,-0.12310900434827034,-0.015173605172680862,0.06525929497129089
378,3780,0.008774564780714856,-0.06878623927056697,-0.009312405431190659,-0.022887272162233227,0.003880756254821885,0.31554495213950634,9.28005945348798,-0.12121988048415268,-0.021409225964539657,0.0725164849577328
379,3790,0.013255147320589026,-0.042932832078344314,0.0010240317195922225,-0.024082535717031187,-0.045164728828575,0.19426426945859293,9.319426969237352,-0.07925991039783303,-0.012360907241598358,0.04642846217002785
380,3800,0.008650910985481156,-0.06267471883016304,0.01825397715291961,-0.030818340325753202,-0.04436592415909443,0.22922006366467718,9.25380793039082,-0.09058931362947698,-0.024206883459192745,0.09916951497505207
381,3810,0.024585092533382022,-0.012213735710562267,-0.0022128451629658654,-0.01977818236032092,-0.026420155335931506,0.31185811429794685,9.277760083979189,-0.10319282542134059,-0.022788899218402645,0.07495144422870788
382,3820,0.03800997042379873,-0.06832495783177657,0.009210469597978329,-0.04147067284695312,-0.06211906413904085,0.15505743468768046,9.354576842234595,-0.08274407988636875,-0.03061739843586856,0.08516728451660735
383,3830,0.024093162926909037,-0.05049122905415544,0.018221446807900686,-0.025605331980977752,-0.17439873565184386,0.3318576911911676,9.740701290749083,-0.1053551648638498,-0.02020224778214931,0.08108446161526597
384,3840,0.00044465699520210983,-0.06459114219074905,-0.0009464925520778138,-0.03419286660490281,-0.29577915355062956,0.32500242358881426,9.323528123701859,-0.08993268792971473,-0.024406567965210443,0.09681026125382818
385,3850,0.020019447070675173,-0.05310828687838834,0.012249301981909284,-0.024755520820551956,-0.22532435288906194,0.29855078058650814,9.289709616300735,-0.11470197832873281,-0.02178099507102862,0.08033866151411383
386,3860,0.0019905105950453455,-0.05148936918220677,0.0011420265009707883,-0.012816307920863457,-0.10575268186720269,0.19465329277529708,9.588864531534592,-0.10486169191541622,-0.02393323701289342,0.09154482237141218
387,3870,-0.009353481367812907,-0.05279435346524154,0.0057676646557879,-0.04215123939903725,-0.15731574357139827,0.3232436700210737,9.660087761018065,-0.0782817867127363,-0.030199959736793673,0.07224829405756247
388,3880,0.01380311598044637,-0.054421492002538235,-0.005009265792855868,-0.03863291563322376,-0.16119842176061908,0.2959687803250515,9.45896435289137,-0.09766334085699815,-0.024361550813948554,0.017878745104122268
389,3890,0.013923239997285192,-0.03875022932161168,-0.011267676429366024,-0.04442113204364068,-0.19106294002689295,0.11616574331664571,9.268672336169615,-0.08437680044662438,-0.02393914734819186,0.08980273452240475
390,3900,0.008841060379478995,-0.03774892834973207,-0.0128843766057055,-0.04987179868957711,-0.19945859220759732,0.2586177118342389,9.19078753103871,-0.09720236420611894,-0.03128150509009056,0.08022175517777155
391,3910,0.014126240814258253,-0.047875418550866335,-0.008449841084551367,-0.02399018262843363,-0.15691348408135083,0.21538250312436116,9.543767599862717,-0.1002141839824168,-0.014408538323388977,0.06854533835073758
392,3920,0.00250511307743069,-0.045254505147347246,-0.008600951602892155,-0.04487216600436684,-0.12451853458425205,0.21338022568331694,9.346724714791241,-0.08005198492781918,-0.023262214652578952,0.08458100183836322
393,3930,0.016138928665809207,-0.04452358915968814,-0.004825846108603852,-0.03488452289123054,-0.31290280052123054,0.3733048490125902,9.413644205759592,-0.13353795983829686,-0.0326025004886716,0.0874656185638523
394,3940,0.022383448612418096,-0.043415623458078215,0.005482583463314752,-0.022203122987410402,-0.16261202560824015,0.1722302943092786,9.411439684035035,-0.06806260941670075,-0.026992494535170816,0.07093589069752126
395,3950,0.02317294324031176,-0.04433919201559106,0.005763303034558404,-0.027798507604577714,-0.13147442810449758,0.17309901300563105,9.331820945005138,-0.06966477525084928,-0.03817244160441748,0.07420151272024456
396,3960,0.02190744502025569,-0.043832938143440685,0.0010414211013208443,-0.043549403302590786,-0.19381155517360804,0.10812012225066965,9.032006369603556,-0.09914795311477405,-0.050760456162976135,0.06806244552027425
397,3970,0.03548913094170151,-0.024802487654256442,-0.0026034994542636723,-0.026963581284815356,-0.2681753045433787,0.3552896958931995,9.270790817024071,-0.0940095262714652,-0.011172081292682903,0.09194527295176062
398,3980,0.016199895612230012,-0.02107961006949927,0.00890509033689437,-0.03367792129667078,-0.0736236805514518,0.37012866714274184,9.370187359928403,-0.1116411995381677,-0.041248754940586926,0.02452368314972473
399,3990,-0.006172829432512858,-0.03797301744000746,0.01638980101640851,-0.020031229768009348,-0.30615722375749393,0.3039851650148113,9.459916072134803,-0.11425625005174304,-0.02544034802866815,0.0716310421267169
400,4000,0.02784903403710204,-0.005122872166121839,0.02116443528478178,-0.008848971775080882,-0.06142322857014104,0.3273656165379407,9.100357420275765,-0.08891992581190555,-0.011502429372897104,0.07385946198174567
401,4010,0.020751915763720326,-0.03447507512147635,-0.007101106262794097,-0.026833361815315034,-0.38428105411923447,0.21142146063390355,9.362064183952072,-0.09778157088570735,-0.02237228777341451,0.0659472874368403
402,4020,0.03854284568428601,-0.02660408094089063,-0.00465951810854676,-0.01430441539219463,-0.13224949324803764,0.30225340778803145,9.448797963830344,-0.10459170470379638,-0.030108843019490385,0.04616798137868275
403,4030,0.048279453168501,-0.018543309343332176,0.02131653703832941,-0.010469687197422696,-0.05082714819003589,0.0780192720686775,9.42126129305924,-0.09911910339201255,-0.05555058158001712,0.05942945077979632
404,4040,0.029109978864508772,-0.009845370315486702,0.017424000129101454,-0.013785194254132108,-0.1477115115613396,0.17390784804137965,9.283613108809275,-0.06107034684397391,-0.04971071942128413,0.08878412411370923
405,4050,0.019107729296309973,-0.020173202415908212,0.007337178133889484,-0.0015564029649603323,-0.06423757915072181,0.21793035985499054,9.432200352139002,-0.07719404124208125,-0.029311157071497167,0.06172818291096871
406,4060,0.01963688962555729,-0.03084702825563205,0.03443321302838153,-0.01679478545307791,-0.20942689017615795,0.21393837687787862,9.430975001974632,-0.09379041423899755,-0.029699549694953385,0.044038316281423996
407,4070,0.02453544603485779,-0.028009812184387382,0.0262308428761526,-0.003909562769381616,-0.0968321105983257,0.2776961042520239,9.277372364191955,-0.08721646125266498,-0.033444171704192054,0.06825598954584827
408,4080,0.021356926936070192,-0.012469801335801198,0.017952484625997186,0.0020870119015335923,-0.2856070444408609,0.24404885691381312,9.463703675412875,-0.10192034276197919,-0.04027416479146795,0.06216850501382903
409,4090,0.03582289620154729,0.004087332690296619,0.03588893620593358,0.00785066156745352,-0.12024231579323821,0.25198739915953344,9.049289283784969,-0.1070314114620497,-0.01752506874270231,0.06704395598961914
410,4100,0.03272314459956266,-0.0008102004186476622,0.014876404726491313,0.0019912626328116552,-0.10280710954962016,0.185019481239713,9.385721075336418,-0.0792285041297952,-0.037717416079542564,0.019937653892418673
411,4110,0.06250882148173599,0.01388929042556161,0.030972387830401762,0.029108831851981588,-0.12568687709645462,0.37220778241639624,9.517774546480515,-0.06252884708748255,-0.038490925210932,0.026427720016228166
412,4120,0.0519303525394111,0.022411325920943553,0.02182349214920983,0.003834947069942111,-0.25733663137706975,0.23847759820319636,9.538247871382966,-0.0936009223749823,-0.021126905824345475,0.0642800743981096
413,4130,0.05342328971625631,-0.004565025674176305,0.03550362002656833,0.00035413622111366526,-0.14606021006031522,0.3819454310514785,9.298356883366951,-0.10549993390251262,-0.01899338774522833,0.014345221369665461
414,4140,0.05655721180712815,0.0009647239066513076,0.02618487361703372,0.012200498690808949,-0.18498345948228168,0.09989123109826586,9.1812585639635,-0.10107494353636132,-0.04803082164463972,0.0333465824629229
415,4150,0.04709428095617995,-0.0019811158462942364,0.021554205819782842,0.001075867955029313,-0.2529346657179314,0.2227552141359863,9.375027586431862,-0.08601307531780857,-0.03259709137618433,0.06646947120450648
416,4160,0.012627675490922394,-0.009794203008474056,0.010164903313285765,0.02341843788693795,-0.31777436899818823,0.1314696925749362,9.251735297027302,-0.07674169972071099,-0.03137237901840364,0.034588018998840245
417,4170,0.036289123255615806,-0.013257787824925578,0.02929071439436076,-0.00024327746528295547,-0.2317295273736787,0.2775237595170717,9.302947979111295,-0.058939045148820965,-0.014271787514623664,0.029098921404207924
418,4180,0.04025064270121918,-0.02088202354413247,0.020648350239936525,0.009366433260572024,-0.009259045856456177,0.3298692020224039,9.455685902446513,-0.06770783655671941,-0.034484585765338666,0.08218621973429543
419,4190,0.04750793164648012,0.014769556655752818,0.031458411070404965,0.01985625095155073,-0.12510011284752798,0.20925674576925896,9.68754350565866,-0.06911937272986826,-0.022291342967581923,0.09448007878514393
420,4200,0.05715574336615398,-0.01840921222198209,0.027973076541054954,0.01342099507391014,-0.3350916855712008,0.40533409095157585,9.553501497955445,-0.11714053876361916,-0.02870973493579331,0.03214465885683493
421,4210,0.024707317222980765,-0.005411988729289332,0.04228087629776686,0.00897403653688417,-0.05583860651150138,0.19272725779470443,9.359388561020717,-0.08152190633915378,-0.04483033365723476,0.04213127136864233
422,4220,0.040287879618011065,-0.0010241555271805923,0.01883567966069325,0.010931016090365397,-0.2528450293785204,0.24066806661951778,9.171922570852162,-0.06952233575960064,-0.05003409333728803,0.03220320689112565
423,4230,0.018961711351976565,-0.018772485193541192,0.014553864740500529,-0.02222296117979383,-0.13295507178088345,0.0718930380145661,9.065504485122005,-0.116543061234718,-0.03990090699076174,0.048841124250909626
424,4240,0.055709185058500636,-0.012191116390588161,0.031440677406022396,0.0036109171540326225,-0.1255603935471028,0.16058367404444315,9.173769148348581,-0.0898101614765304,-0.04154128104680671,0.06563599988827735
425,4250,0.02784274148657063,0.0027503276125539385,0.02530799802326982,0.019235165897223065,-0.1880928738793851,0.19588574575509426,9.405886959682173,-0.04803341152629946,-0.03453452581595369,0.03775071195219486
426,4260,0.06361309549306013,-0.017156721656346387,0.03583720494874412,0.000473042198061417,-0.18770189772707985,0.16065076278031362,9.490772974974025,-0.09082248360556579,-0.03512867702403755,0.01894071562496412
427,4270,0.03918408325948863,0.010819623483274022,0.03880423510897134,0.006683914523800696,-0.11406803173061603,0.15573957412204115,9.485724295862523,-0.07751923415301855,-0.029042092173129638,0.050426515957652934
428,4280,0.04481343674660189,-0.0006980574615515576,0.012011078982814536,0.0042097219163590716,-0.247929247505784,0.18010282483569806,9.53537596784822,-0.08568600512003216,-0.06476819788687219,0.06234874575174167
429,4290,0.041288814263115495,-0.02434823789435694,0.007569721715971849,0.006785014152214354,-0.4467369304633475,0.22906569849246,9.715438173352908,-0.10018578706909728,-0.02600126834805716,0.03219103738673735
430,4300,0.0356876340519355,-0.009849551194444507,0.0037096360717904404,0.00333798374340073,-0.10568172885012914,0.30713854534718,9.63038089342633,-0.06715221073910063,-0.029795596249319545,0.039248371512565064
431,4310,0.030806218514222692,-0.007838128374872525,0.020782006356299922,-0.010390709369089078,-0.45025842659745385,0.13857820924821132,9.444632137340571,-0.12035714641693099,-0.028990719423397697,0.06671466612417337
432,4320,0.03838052611721956,-0.011670467004238436,0.01568286683252749,0.010202710652957983,-0.30493526160277823,0.10044380761363021,9.09257451833372,-0.06636025641366985,-0.054658805530827186,0.04257607742635965
433,4330,0.030620618159112094,-0.022729553958544285,0.023248451309643633,-0.012984295577439,-0.2799777371465868,0.186979939460313,9.577826898828837,-0.11885197245410326,-0.03172655229558858,0.04757351913708117
434,4340,0.019571118272310742,-0.021918715573191465,0.0033186644686514794,-0.0026157276781202474,-0.15702769703826241,0.13427199983670526,9.723723400479257,-0.056204619396972855,-0.0459635048929611,-0.028792930639312153
435,4350,0.0005840130598468015,-0.030140478290171465,0.009430969264046022,-0.016696456750897863,-0.26444753150368194,0.11491603419931838,9.24580284020934,-0.07903828318202864,-0.026396235021762887,0.0831284680426143
436,4360,0.03223155062127335,-0.01814268673677167,0.003763451058653817,-0.008877565540942167,-0.2510513686047281,-0.008258712506138943,9.634250188798022,-0.0413404904370869,-0.044433353809462964,0.03142867514651763
437,4370,0.03102884493588521,-0.006483187918271359,0.02026340479102478,0.01572183416677305,-0.20316000642453858,0.21541159689451783,9.335251554179528,-0.08401038182938061,-0.05410609724798201,0.03103181743190023
438,4380,0.008248315553932906,-0.002076747289943723,0.020653086020096963,0.008867901705943248,-0.31988379091929253,0.1435196318044523,9.556730176289653,-0.10557472732077491,-0.04682457447046244,0.02821261955541655
439,4390,0.03663437365530127,0.008820123738022365,0.009326073449778564,-0.011854699134087683,-0.2025950855471691,0.1166483052865825,9.625818818471393,-0.09554067125204085,-0.03326838896417732,0.039303611059436805
440,4400,0.016191100857559978,-0.015757217088603677,0.024072789873775566,-0.0010833313250386406,-0.2296488095283104,0.26688967198334224,9.921211444788074,-0.02032704456716728,-0.03347130689503283,0.030962164019703312
441,4410,0.02695954249992229,-0.005416136660351546,0.0026173312055773716,-0.0210110999860254,-0.24697780428001168,0.167240140581488,9.751871850801201,-0.0572488554245505,-0.04586435828214834,0.027227989449434168
442,4420,0.03229771113514962,-0.013580195004328992,0.004071408314421054,-0.016592708376666595,-0.35318734517072753,0.16860943255322736,9.04137564889767,-0.06652427970308596,-0.05172615008786578,0.038004662083233845
443,4430,0.03350847553473894,-0.0003790569794735951,0.011619182369466241,-0.0015348539482953165,-0.37883746238899696,0.16661803608931808,9.54932839155695,-0.07583438748295353,-0.035559675134758606,0.03678110605944723
444,4440,0.020038121990792794,-0.0171944803547295,0.03067080657021343,-0.0009577349307120829,-0.16178836524341922,0.0009203570908853376,9.426749108372146,-0.04500504570433875,-0.04821985219572578,0.04595411535197817
445,4450,0.04153570240270456,-0.030669292602875705,0.028387942763987643,0.014729910185062787,-0.13342490205800253,0.16838224292749282,9.764996825596484,-0.044637196867104885,-0.016869966987072865,0.0052966767162544665
446,4460,0.02723479091965696,-0.002605341332217506,-0.00178938016633628,0.009179257413905934,-0.359516359809509,0.1320930295937026,9.611338249767979,-0.08439864508714746,-0.04857116340949141,0.10142270510189375
447,4470,0.030906775325435287,0.003041024292181442,0.02786926923670096,-0.002335320264360412,-0.37710918143311956,0.1918346604381554,9.56736113986083,-0.07048558343059383,-0.05877352302474926,0.05577349916058296
448,4480,0.02045023569268701,-0.012985198094026932,0.01809001484610219,0.0014174439844521877,-0.23234044155003658,0.20290756682017835,9.41451720591407,-0.051069300956245504,-0.03911164456983625,0.022267661882331553
449,4490,0.035382074167815476,0.015327700693011165,0.027022685899253003,0.011683106747729492,-0.3344278182459715,0.14777893372901843,9.613082572903172,-0.019483342602609373,-0.03285094844255067,-0.016418708321755123
450,4500,0.03322062618023937,0.0011603933451351071,0.03276584971107723,-0.0038318523310678886,-0.30308539450484223,0.1523320399272726,9.657957065951004,-0.054710365813727325,-0.03690689491893835,0.04259863709498122
451,4510,0.04994088660865028,0.011192874389547802,0.025253398033668353,0.021844699849777695,-0.3602638809308548,-0.03860331688066461,9.598128841146842,-0.05496923703429295,-0.045143971197966426,0.026379175651294218
452,4520,0.04534257579834485,0.006544583945473015,0.044017827075555474,0.01647625631314682,-0.2633347186575907,0.06417056768658684,9.07271037480529,-0.05832432455092513,-0.042074895726744534,0.05314569491564078
453,4530,0.04474986827948205,-0.0022250862407946605,0.02585674719348187,0.016202286101115328,-0.2885800331337429,0.15872864910528875,9.483364618843181,-0.06522260838005327,-0.036881735377962827,0.025058171003935363
454,4540,0.028232809709539668,0.010515031762621708,0.03570471337384285,0.00985848986929222,-0.2651099268970826,-0.0029540602066239876,9.853254393647095,-0.06903026754077411,-0.048648376942719875,0.043336731176684296
455,4550,0.051396172479072855,0.011320662874382836,0.02855942541577376,0.036520627879541925,-0.17847279980832942,0.2699182724575236,9.454681225123032,-0.04421258178818162,-0.027097030219579172,0.073597900493765
456,4560,0.04514030119209105,0.018169453082891092,0.04276080719571503,0.027254674629017824,-0.36407579033501714,0.102275123635698,9.72128713117543,-0.03481472530420866,-0.05157587525921699,0.030941914652176394
457,4570,0.03137804788873689,0.030630126208646472,0.04300156022118385,0.03319416491209341,-0.3146973359916435,-0.1589850487632184,9.269161484125018,-0.02978715868035716,-0.061007880383413864,-0.0007084432647754581
458,4580,0.04266785204483727,0.010500313873164076,0.04102923214692314,0.014760417042818594,-0.15073550045159206,0.2914397945644541,9.236681790843017,-0.07037552414342158,-0.03903501933650878,0.006648678488394243
459,4590,0.0442232941686079,0.018158961018277537,0.05906449347960285,0.023025604865914116,-0.2058682938844027,0.12788101063106164,9.709747785899639,-0.049802000309695726,-0.04243727050687522,0.0035680196126249867
460,4600,0.04526547533608107,0.03664758144950037,0.04326715097971355,0.02571868419725899,-0.3273121431278858,0.27866243484578335,9.737359216549414,-0.023318470389177996,-0.06422004306117432,0.005070863058249054
461,4610,0.03636130413625528,0.006723281634335224,0.04075489926358572,0.007117355709957904,-0.25160049447611876,0.19813833227654085,9.274389569454872,-0.05948865076287179,-0.043178637148034354,0.06545137596506431
462,4620,0.06573718922743084,0.045091210246682736,0.04493673450633018,0.032361385214668706,-0.35792942101152597,0.1391508875136356,9.445676338881002,-0.03501606192314191,-0.03252835861393209,0.04894234286821724
463,4630,0.04601134752113641,0.023785682588243935,0.024620260329207742,0.032243260857393166,-0.30968156709451494,0.12635386840477994,9.647674816550836,-0.012478658288287627,-0.06372542592431982,0.040483526199626974
464,4640,0.038340455448955146,0.012307211275230844,0.03896761527186985,0.022170601102791086,-0.3591362301486986,0.19537899515021062,9.647595988010053,-0.035764053962339906,-0.0509943336535533,0.010358842306383923
465,4650,0.060590359925191295,0.03133066080146739,0.061604764942129665,0.03205828916037735,-0.20978466979810345,0.035369502217674785,9.503810095346445,-0.03825111534851185,-0.06954607919005582,0.03708430055425561
466,4660,0.021419746394351628,0.03461020002632896,0.018651565080379677,-0.004281580873374113,-0.22790690419664178,0.04928519173901067,9.38586930606411,-0.06280862393737784,-0.05079603325735877,0.019301692825809645
467,4670,0.04587901748651698,0.019678209606480673,0.02372357629049577,0.01554885074694163,-0.23104188353621183,0.06088647979906001,9.47046622519812,-0.05116561139029148,-0.044895544494185084,0.01986982265594791
468,4680,0.02836140022530274,0.030024133259100354,0.02614524156162282,0.016014355505657326,-0.40009456095203727,-0.03844996948182634,9.377620219623907,-0.043382410484820104,-0.059249356857760824,0.052841122558094526
469,4690,0.04953921081577926,0.03110098269336243,0.02192784463219903,0.027196719485518436,-0.060702013388104326,0.005779878480271706,9.648476174187554,-0.028473149053057534,-0.042766337433591914,0.03140282840539422
470,4700,0.026803317661191282,-0.01105519971212528,0.013394284296896746,0.002043272254125381,-0.25023898633751723,-0.0298147594870116,9.281369502647115,-0.037763624558689333,-0.05980208094239192,0.035985208282296295
471,4710,0.03352849089270731,0.007291689070758278,0.032070631146488365,0.03936248154225735,-0.29115004989965476,0.011829481397995134,9.547353902297626,-0.0052211328328883415,-0.04232390075626239,0.011565105262876617
472,4720,0.026498761796587014,0.02854725953978227,0.00435548226349497,0.01313640601803647,-0.20847151099957295,0.05648205335179373,9.905677599019025,-0.019703483667499973,-0.04039476145411904,-0.00883123136013172
473,4730,0.024920535624054167,0.022144527535026378,0.034434156139650104,0.006569327540447034,-0.3501987550372154,0.1302239309159851,9.636975832311556,-0.06638710125225566,-0.04485375846441718,-0.01352497217743342
474,4740,0.03276230680155608,0.015291787433788923,0.02231936346711725,0.0027368864413264415,-0.3014688568150792,0.1743600703881868,9.471967200950893,-0.009066517093824656,-0.03500776304173563,0.03383853998878637
475,4750,0.014881865910672639,0.007769512640756207,0.011576118725471835,0.008778843308021544,-0.30078079379412237,0.11374563846983504,9.628358062990113,-0.020710161769643888,-0.040704089400933945,0.018149958470644167
476,4760,0.024820153959381475,0.005064939811028518,0.021384430792110644,0.028181774762768223,-0.23709819440260893,-0.026345841704163445,9.429124865757341,-0.01988728520114639,-0.05631480181618802,0.02339963736823307
477,4770,0.009126578958142947,0.009075114241793508,0.005315204217992771,-0.014028288983722874,-0.3261241958364205,0.0012977797573018868,9.3233278437707,-0.031062587083397313,-0.043428931473546636,-0.025690414578023357
478,4780,0.03374413501541212,0.011073044703291485,0.024025147367120636,0.004062996347135794,-0.503022010389636,0.05113256335030669,9.431989428451038,-0.028129491302338622,-0.03281879518687434,-0.008887641181211702
479,4790,-0.0084507657383786,0.017830963676557097,0.027031849665105256,0.01618904393113508,-0.3155788549230697,0.04095234653130647,9.93645178882886,-0.02274465839669249,-0.06892703930758667,-0.009977605126068042
480,4800,0.020791412489958323,-0.012576961112613744,0.0033742189097699903,0.008042435039070414,-0.24199144111364418,0.10469585202932917,9.480874909607817,-0.05131843879039906,-0.047004929629207964,0.044229773261081504
481,4810,0.01467101347367726,-0.007213691726523714,0.009281479803370497,-0.0028452051885609194,-0.27826375551203236,-0.08012148419210667,9.688493068982812,-0.02402320448187462,-0.05731063024866548,-0.00098361706404721
482,4820,-0.00043359319476917054,0.01008450310419369,0.016366886426587766,-0.0031555445567208133,-0.37939891612914123,0.16722907271704407,9.43128709394588,-0.01711161766375121,-0.04017848557865737,0.03635419945805998
483,4830,0.019481024610737776,-0.01792147692052243,-0.011259094752391476,0.004354935011407108,-0.3893288605033689,0.10737413094986877,9.643298168942259,-0.03504904400843354,-0.04683311455901658,0.008913318003838135
484,4840,0.010592602043794336,0.011648287126280198,0.01750343316521648,0.009043199336422843,-0.41312755768609893,0.22510221685547283,9.810769430781766,-0.02143637370759315,-0.05797851556273738,0.0034809331005954233
485,4850,0.00981708190979525,-0.013263731826155237,0.01672040835979415,-0.008383663195384158,-0.33893332744196975,0.05762289047248236,9.67807562983098,-0.010027459204630775,-0.05763283491793961,-0.0026494037492691145
486,4860,0.015540668111901385,0.015074911664246383,0.007110914121782727,0.0012503338255840663,-0.42840891267173276,0.0523173643003213,9.230884763532831,0.023447969946050026,-0.04171788597047191,0.03497273486856624
487,4870,0.0034680091161638812,-0.0015829116647901715,-0.015128627765700333,0.004131695651399397,-0.3262257351458014,0.04443041779591121,9.639967642013422,-0.01782391688309862,-0.03894983518792631,0.0019830417698999256
488,4880,-0.0009278485088099401,0.0032289919462194735,-0.0019673338662264017,-0.004071237764231786,-0.19328488718280326,0.11373491409685582,9.901389811551228,-0.016721984858151476,-0.05494590095404732,-0.014883705795872991
489,4890,0.0014790944972511327,-0.016541171236302468,-0.008094990771690371,-0.005396113399810795,-0.35337546107908485,0.04241990553497214,9.957767759479577,-0.00969306481576622,-0.054333215117921795,0.045096694182854724
490,4900,0.006314118835653337,-0.010418853095944224,-0.003675198759889413,-0.0018101779117413335,-0.17187456688307703,0.10500765469035081,9.888009051030464,-0.02276547780390545,-0.053097463976012366,0.003958814269507362
491,4910,-0.0007063232011262326,0.001049153497015288,0.012886265284986508,-0.004566902510697152,-0.27398696717301546,0.03659921874650548,9.708088606764404,-0.020650018005687838,-0.05332579498512788,0.008608878873249822
492,4920,0.02196165701934453,-0.017038760159962456,-0.009749111295138661,-0.005827826521056378,-0.21550106598087393,0.02031760046829273,9.491783503414922,-0.04838687899681881,-0.041540503371360456,0.016092571814247357
493,4930,-0.004792083740303754,0.013037206114143978,-0.003692261872234181,-0.002600552188061447,-0.39723452380548596,0.12247666087029174,9.376959746969398,-0.006755849578352777,-0.05232884913536174,-0.04332288103978163
494,4940,0.0021181351274757653,0.016728182461906854,0.008192044720610926,0.00069476181368037,-0.20185752473779292,0.06290341221119615,9.78427805929984,0.004155622347772859,-0.04714835671980329,0.010655862150421516
495,4950,-0.005169273785240252,-0.0008175665910746829,-0.01379754324381135,0.002433193044674019,-0.27099405222382783,0.07483631281308628,9.475567236810253,-0.03841978897906857,-0.040139031414732886,0.009491768492502592
496,4960,0.011987377591682917,-0.00034363228657277074,0.010920088086806294,-0.007811148190953848,-0.2964195840218214,-0.11894675454717579,10.101684058554213,-0.002832497742610806,-0.05423133204805658,-0.010816225654452333
497,4970,0.00783732567024697,-0.0054418153305026,-0.0013993120378455255,-0.014802517473013378,-0.23592212555717862,0.1641967391254689,9.998573274291703,0.010816486842900302,-0.047498260418072424,0.012569899960561837
498,4980,0.003413041722264076,0.008045028876427393,0.0014466631352523934,-0.006058439747886714,-0.22576857654103788,-0.056424465795047944,9.690427227099331,0.012527039065728062,-0.059781193891767614,0.017178479145050843
499,4990,0.007864652963945264,0.01782411400616063,0.010941240372753699,-0.0182762658660684,-0.19169044741497837,0.057063207880141534,9.448094454551642,-0.014751732897609234,-0.046842595363853136,0.00903689164414999
500,5000,0.000713624213283958,-0.012796143247799962,-0.02325362665144633,-0.010752922997752996,-0.1417594210282564,-0.022874266564642767,9.394006672679613,0.010941605508872092,-0.034955301411855315,0.01806427382702592
501,5010,-0.003521418092962356,-0.0003590315157517582,-0.030253286414513803,0.013801115085395539,-0.29145928797007353,-0.048330380267254,9.688714485765795,0.007633454284907945,-0.037451560710442804,-0.022425456036571655
502,5020,0.0053227763463831405,-0.001426118703267238,0.02296362962945624,-0.022535389494516056,-0.1837405601275065,-0.12817412123203661,9.942610346662821,0.011065893291425986,-0.0525411868050605,-0.0702622150564869
503,5030,-0.0009927719516051108,-0.008371396132768756,0.007567699159085346,-0.012963845031903034,-0.24931403578258973,-0.02017151657297141,9.894057848500516,-0.02652616316504275,-0.04777669025632077,0.018496550855872866
504,5040,-0.002715026205122199,-0.005859851665261384,0.00729320600168336,-0.005450387158813366,-0.1742175720979867,0.08582665673971035,9.698329301077795,0.0098267230796838,-0.05727668964537215,0.027768499772121286
505,5050,0.010054259931759632,-0.007187244745983013,-0.005399535470382157,-0.013138293663439573,-0.34154301663223113,0.007946762728115743,9.801133824946607,0.01802294093438546,-0.05702812087590981,0.0012882770638200174
506,5060,-0.005806894843210411,0.00037081330725747847,-0.008976853982127523,-0.015259638165099995,-0.3819464813615251,-0.026000309296094443,9.56487197186465,0.0025656541809073773,-0.04018468361953924,0.040716791748207394
507,5070,-0.017687363436026192,0.005839143619592063,-0.003727799009973696,0.013868184470502976,-0.20006867794746397,-0.01714494076251151,10.05617589911404,-0.004141078455367453,-0.0488005674699817,0.01977991696196174
508,5080,-0.02886327654143983,-0.011725809690393114,-0.0019785258711860505,0.004772950568400608,-0.16769561351668574,-0.08331276791473385,9.751210096936873,-0.005854694668733566,-0.04408994656917387,-0.04275010111472256
509,5090,-0.0027261477730253633,0.011400862987160575,-0.015528248396660796,0.004431464971562137,-0.23112981487613832,-0.008048746795263231,10.115410001928876,0.03799856843819055,-0.04353879104822252,-0.06348781600541388
510,5100,-0.004727108188619241,0.012500052821365916,0.009913863136536024,0.003887911303352888,-0.31477511020042037,-0.08964385816504182,10.208035658284938,0.0033101707369000578,-0.03868295622632103,0.0012184979523026155
511,5110,0.016940830170375315,0.0005677375759816821,0.0028434356070025685,-0.013976386341526755,-0.3232792354753539,0.008987886260333268,9.776281537351327,0.0064620655252569,-0.06489050326971017,-0.03566627905133992
512,5120,0.007640162349815391,0.011690518874782143,0.010938575317187796,0.0023398748744979624,-0.2686709997285705,-0.019689237192777122,9.931375837875178,0.02293584829968377,-0.07146850869115835,-0.009442658963933223
513,5130,-0.006659317467558466,0.014789732204764717,-0.02504598499926403,0.005892184257421537,-0.1474477359072548,0.00563204954735746,9.737778041748422,-0.0029472536731671266,-0.05587382909882328,-0.0025833531652083384
514,5140,-0.003252103006623405,0.027704286947396888,0.008428427165675071,0.012293475640036198,-0.36729339806227146,-0.05301021064858891,10.043372218622329,0.03996943359771148,-0.029742042298235925,-0.023214756157136515
515,5150,0.012287996972778523,-0.014908883896664277,0.00465173387800984,0.015405922943146987,-0.2816677692075227,-0.20816859414625188,10.126270603274206,-0.0024738318599007887,-0.03728919210199426,0.016431853645613653
516,5160,-0.005030308112678177,-0.003987071654169405,-0.006364322491660253,0.005305881569364571,-0.4423716852683528,-0.12181408842543962,9.860415572014425,0.0385455430426922,-0.038053711154101354,-0.0008766005436151292
517,5170,-0.014633801502797222,-0.011100983915959449,-0.016217091180535062,0.001971820798520257,-0.4033542693501103,-0.009658526536610451,9.839266318418325,0.028858948873906682,-0.04696685690392962,-0.013329481264212056
518,5180,-0.0050073845630052155,0.010243019029399891,0.011511513799913794,0.004919385460227457,-0.2609288866385177,-0.14383789662153057,10.149405545012742,-0.0024288932049129214,-0.02099068642895293,0.0239327392016741
519,5190,-0.013934473520081373,-0.010366986446384984,-0.014185687681446766,0.0018964276947079995,-0.47546534539369745,-0.010253797445071251,10.014185005436586,0.029072815722482794,-0.034961485680002354,-0.03281791948628196
520,5200,-0.004999241118518774,0.03384317852989496,0.0059871706885755134,0.006417688075435388,-0.33795779551089955,-0.21629007288914673,10.000656761398844,0.02767708825417061,-0.040957229535123534,0.0032188119976535893
521,5210,-0.0344228683005722,-0.003392783560379001,-0.00973734568641306,-0.018039879540233762,-0.32461651070972175,0.03760934361295826,9.60175399924709,0.057400256200081594,-0.047535499685089064,-0.03244714209982079
522,5220,-0.0015135646446804481,0.015151551303909709,-0.0164705577774857,0.0050187339831956725,-0.37912182174838926,-0.09617823445082585,10.142115399554024,0.026589400904303628,-0.06095740682744652,-0.021662511089086976
523,5230,0.002005066509457617,0.01177161740045182,0.0003679721487414351,0.019942730235721143,-0.14113710786335193,-0.014369124960361912,10.052683980292523,-0.0011422435014959154,-0.0526171676300769,-0.04615353688265795
524,5240,-0.0014459361319576914,-0.004780593320447271,-0.014553121218257418,0.0020693938454928156,-0.2389826408354904,-0.06582631062949447,9.49826442221544,0.07184877274469606,-0.044336249156855106,0.0027802794090116037
525,5250,-0.014728499413901223,-0.01991126279179521,-0.019051021804932358,0.005701925683303409,-0.35146141335899495,-0.02890327648206985,10.202831472317184,0.012092561600443766,-0.07026937183223324,-0.025348093885258938
526,5260,-0.018965211021626203,0.0026331552929869393,-0.022467030355779124,-0.014847437920789432,-0.23149337490696184,0.07698446805946915,10.332236046882397,0.061137995400817796,-0.048344160578626436,-0.006848610477108575
527,5270,-0.01701494789597922,-0.00973364684751422,-0.02451696042938703,0.006322328027773795,-0.3778805465553839,-0.05645091051873772,9.671976436053537,0.07285879208787474,-0.0382225080531092,-0.02298721058215159
528,5280,-0.005759635653989344,-0.00541481501218531,-0.017088923594902383,-0.017652188932150127,-0.24738378303761158,-0.19014529926578028,10.269828419473333,0.018679186283526366,-0.05351511327458335,-0.017380477308370952
529,5290,-0.019715029779696983,-0.014424748242257195,-0.009690888804699916,-0.009549614692239205,-0.14947149185674916,-0.0591129144128604,9.489958703655429,0.051814662644835,-0.043777004904175326,-0.019655934836681873
530,5300,-0.038805222513287184,0.0022501503624789833,-0.021000817348972516,-0.0059015808287862966,-0.27507621371707447,-0.04028194041504529,10.470625269818086,0.009223350781149862,-0.05405555321542686,-0.007771310862009132
531,5310,-0.036589037112662336,-0.00725170539789243,-0.032022132064259516,-0.02966838522046985,-0.3392577037466087,-0.08067713889881785,10.001593236049425,0.06500619219813518,-0.053767622154850744,-0.004892233582955081
532,5320,-0.04527347089583836,-0.007007038324182557,-0.0302274403585686,-0.037381951354952356,-0.2536245579626501,-0.15085418604871675,10.1145910779439,0.030442338159081248,-0.052193998441906204,-0.020251779779871883
533,5330,-0.014498030545366115,0.020302407314904666,-0.007860720889550952,0.0038623083529713796,-0.36837821777230706,-0.027294572448138765,9.951443949538557,0.0032762517852879813,-0.028961072540109396,-0.014291066880093834
534,5340,-0.04799578397736359,-0.019343319015837863,-0.055880749565954985,-0.03808323799331289,-0.25966319344716726,-0.17611244169677148,9.81517779436165,0.07164712290512189,-0.07160415860453073,-0.015701122907557617
535,5350,-0.03133881992917437,0.012032004274632248,-0.03707417861322355,-0.03005933332905517,-0.2652354843715781,-0.026812993039900014,10.328324355329418,0.06917288438397273,-0.05076475036630512,-0.028875966670198767
536,5360,-0.04659253675509461,-0.023550901150886448,-0.03154170571533838,-0.026001811606243284,-0.2739008729373182,-0.16135755912621913,10.150175010952951,0.0592774746684198,-0.04414398724765259,0.0005325803220895243
537,5370,-0.04904299531162857,-0.02750004548796627,-0.03411886453454079,-0.022687651533755376,-0.21804804676532064,-0.11542861185067094,10.06989547986573,0.03628301524493748,-0.056669999366337,-0.0005701722707822134
538,5380,-0.03570774348078522,-0.017569419924269088,-0.019767459797174747,-0.01814899619349737,-0.3890816897682224,-0.2334467325361041,10.110193063972861,0.03717387900845097,-0.06265881385792914,-0.01420741575570613
539,5390,-0.027767176920388624,-0.002623205723235559,-0.02852968133298529,-0.045910249594571795,-0.20793109065870435,-0.11198543466113853,9.66323261589016,0.019058827521537106,-0.04857879827918796,-0.05627233256154304
540,5400,-0.03698345457548,-0.006595837600509675,-0.03289910425698286,-0.016363160288722582,-0.24292713600856625,-0.024448539430578065,9.904736815593521,0.06290324844404632,-0.0457048268940208,-0.030099984821186466
541,5410,-0.05395217253061446,-0.009129793641762024,-0.02655464166153533,-0.018364167840126747,-0.32241589456413516,-0.14413251152293682,9.928092123661266,0.04353068964858339,-0.042411092686750106,-0.06512439254291587
542,5420,-0.051258973638023196,-0.004816608617664401,-0.01763182741209555,0.0008489358938110134,-0.3337747354655014,-0.18255772685299365,10.185924748437452,0.08972955941230823,-0.03734844510653781,-0.011523796744298301
543,5430,-0.012150219415235482,-0.010853327253663649,-0.021304022472795753,-0.009670729324057459,-0.15932497622835934,-0.20551295143244747,10.387595712659959,0.03269438526819883,-0.04581375468631735,-0.03254274192682159
544,5440,-0.05092734926948787,-0.01981173442094535,-0.031812759782381246,-0.006896634957746303,-0.44345422881286617,-0.20038579641705248,10.117984063306357,0.029512330848135437,-0.044787925953493235,-0.049608957239615684
545,5450,-0.05855796263278414,-0.024663851400067858,-0.04790956718663832,-0.03436545153605019,-0.42665661195637633,-0.1698000237296643,9.64345094977798,0.06642781447878228,-0.029290390444132133,-0.016738145083981578
546,5460,-0.0414703222534882,-0.02018409602381933,-0.011625259351762816,-0.026213014384707835,-0.222249598544626,-0.11958149872359054,9.735038615180683,0.0660827475182779,-0.03261690475423669,-0.015380663168616146
547,5470,-0.028814349550766727,-0.02736646695265079,-0.019792184159377363,-0.012176719873440217,-0.2589012104053786,-0.10908022981875082,10.172102299721141,0.059355191495902654,-0.046523056799532496,-0.045948839558567926
548,5480,-0.018366314480846906,-0.013395461636026233,-0.02703758004915347,-0.0003873268005414529,-0.3154355874345962,-0.2275122762616503,9.930955273945171,0.07419861450247338,-0.03444515518030146,-0.03880048016905104
549,5490,-0.034190677825542526,-0.0037112619320811557,-0.029877118501440016,-0.013822974538167245,-0.3893409811508054,-0.1594729508596302,10.030406100133007,0.020267270226645907,-0.04842886241455524,-0.029374920451578728
550,5500,-0.04124982390533642,-0.018304394792307308,-0.020941620691037433,-0.0095149293070249,-0.07668399281179991,-0.1481211140439003,10.021788092085062,0.0514946718231499,-0.05299420567896303,-0.07443981050132774
551,5510,-0.03957139502416061,-0.025576933428843433,-0.0297913862190424,0.003486337826493161,-0.35329503028551007,-0.08944042505748813,10.19073555437344,0.08203871324740619,-0.04097734624309973,-0.02934328837723162
552,5520,-0.033765030099956364,0.0171526735549456,-0.02849943670986494,-0.004715080495401479,-0.2922562361532203,-0.19699413496256588,10.019369001986611,0.09094354162767546,-0.05918305874811219,-0.0783841755523026
553,5530,-0.030416767612988838,-0.005663042218121365,0.0015391980373342263,0.0011288526072817935,-0.4191559214392956,-0.1762376659311656,10.105234268028093,0.05458755385587459,-0.0213464528181435,-0.08362373832211646
554,5540,0.0056306369337512764,0.009900740397441965,-0.03619919969004358,-0.00266275916627316,-0.2009759140311663,-0.19902953798717357,10.19472696108445,0.06085433311399314,-0.03690996276090764,-0.05686339308210977
555,5550,-0.018684885370193128,0.016977491981708726,-0.019936781775335935,-0.001318881525713909,-0.18214393198401507,-0.06374987192706398,10.135858942252927,0.03406726006241777,-0.04670990974999249,-0.03934150400839696
556,5560,-0.02322012099427896,0.01377669833435729,-0.02411379408688827,0.003617347677231946,-0.0726642078779563,-0.25496153561491836,10.268850122099709,0.06841984634401102,-0.039791794296408674,-0.031996287418059086
557,5570,-0.025027241862281467,-0.005718468695187666,-0.005958896295722563,-0.015341976997404121,-0.25201630834357486,-0.17091006780960674,10.3376850665543,0.07220459618907185,-0.05343150982595139,-0.035876125776441795
558,5580,-0.01696972402300998,0.016082367548011588,-0.016131128223056238,-0.008477313784616577,-0.2128843382581845,-0.3270544033072149,10.603822527258194,0.0220870774296932,-0.0392989203132716,-0.04174274312322536
559,5590,-0.012818172805640111,0.017590624720432414,0.0007380344599548522,0.01808865810612216,-0.22417434351153204,-0.24900176648976116,10.532652352826101,0.0865283423025129,-0.04078847839368608,-0.0694127538785965
