index,elapse_time,susp_fl,susp_fr,susp_rl,susp_rr,acc_x,acc_y,acc_z,rot_x,rot_y,rot_z
0,0,-0.0467591549869763,0.0417294375138612,-0.0310676660179079,0.0313708249603324,0.2733070180751112,-0.4634312887947607,9.74393269553125,-0.032829642836535,0.0228944603797977,-0.1174405837226893
1,10,-0.0293036146962083,0.0230668479465856,-0.0259284201879067,0.0259098005162577,0.2185620208905892,-0.5614378849462313,9.763216234214829,-0.0333870717699628,0.0466896895359193,-0.0783506345673501
2,20,-0.0286339563388495,0.0106854162242299,-0.0233042808159226,0.0053168470336385,0.3691368578788391,-0.7248168412381556,9.891252211485272,-0.0370361495435668,0.0510729529554022,-0.1460120025314618
3,30,-0.0615009725203115,0.006117893279761,-0.0374984864547423,0.0233859609570056,0.2457149681912946,-0.5487719104251754,9.296235353921311,0.003963195681183,0.0478668377319017,-0.1092116810374386
4,40,-0.021689024884345,0.0086241374652463,-0.0369914946785656,0.0262532698772572,0.2111760858135344,-0.448303981817429,9.52896413462314,-0.0316781601363311,0.0462352703167046,-0.1922719320019849
5,50,-0.0265823751663289,0.0209828169400339,-0.0273672686756248,0.0051875418087972,0.2400992822866121,-0.5002585173717498,9.935817927153234,0.0231356058184622,0.0389693089277444,-0.1009286063063171
6,60,-0.0380242456882124,0.024151267553847,-0.0233640155351095,0.0283065906321334,0.1272744134417616,-0.5420439976991075,9.833429789004157,-0.0072131574773881,0.0349090350613298,-0.1547090650952497
7,70,-0.0205593941455335,0.0444397523622489,-0.0338549781684855,0.0320900594013961,0.078104882590354,-0.2893596597751119,9.863625253811536,-0.017792185520032,0.0351675107005249,-0.1799606766756385
8,80,-0.0348322013744141,0.0195525997256898,-0.043510775449864,0.0100408261720656,0.0889914998505284,-0.5080958008752756,9.858601632063456,-0.0191101435619569,0.0320712245871041,-0.161304573907705
9,90,-0.0382340695324012,0.0098612141439074,-0.0349218945112796,0.0301806755928131,0.2615527514440791,-0.4553510558877278,9.59346978448689,-0.0371854822921096,0.0470316412498187,-0.1450676965333296
10,100,-0.0217965331351534,0.0227455228178867,-0.0214414353953547,-0.0024141521649924,0.3588938847339923,-0.5903870470578062,9.641947876757326,-0.0556506579693207,0.0386488456520662,-0.1053605027664869
11,110,-0.0419707420975208,0.0164045283454268,-0.02629701393267,0.0318690217010307,0.2898805834094185,-0.5327187438973664,9.687710979559023,-0.0221738978962831,0.0423862694290996,-0.1512488714743705
12,120,-0.0567074640127539,0.0154571696801333,-0.0253615257617441,0.0152741699846102,0.2958918021995589,-0.3901042780228101,9.82813586394519,-0.0740246025270378,0.0414217552848773,-0.0816068346018575
13,130,-0.0636193448661279,0.0071822642202856,-0.0598838853032299,-0.0071846133247557,0.2007839503415254,-0.5375905340383414,9.870412047961906,-0.041464785670654,0.049479487936843,-0.1396834419235944
14,140,-0.0395242189797216,0.0143610792931955,-0.0418437844993718,-0.0041748014321309,0.1007574392899778,-0.4474271883448287,9.853962715668446,-0.0236817361393497,0.0542036780369853,-0.1555524492372275
15,150,-0.0265189005733365,0.0200038585229051,-0.0156101271750125,0.0041072005186846,0.2360695359753,-0.4932683252448336,9.706992332389872,-0.0469175758115552,0.021822412428685,-0.1937663850804086
16,160,-0.0342504504309535,0.0195311124617638,-0.0209815167905881,0.0168024185489482,0.3884000158534808,-0.6773928119906765,9.628711598633314,-0.0544803830321527,0.0425834946730524,-0.1350835056341462
17,170,-0.0320857895501603,0.029787876993974,-0.0436146255949943,0.0220244820184321,0.2614709773017298,-0.6277045217185284,9.394941113290002,-0.038463711484136,0.0456278745872349,-0.1419242113622626
18,180,-0.0344758186975913,0.0178723180333799,-0.0298732883938711,0.0224763725623292,0.2907240386357986,-0.1533732475194159,9.794541724283278,-0.0562664769333555,0.0434525057960108,-0.1951913481716905
19,190,-0.0464086800010651,0.0200641372062661,-0.0411151903716298,0.0143587515785182,0.5129095167580562,-0.4693940285385859,9.657539029837874,-0.0608607978126654,0.0315642551191543,-0.1439967710152168
20,200,-0.0530681098573155,0.0044621016679443,-0.0632726882182155,-0.027714681058489,0.0800027572058689,-0.419764303764181,9.773677606520655,-0.0079223652267792,0.0485208886499977,-0.2051691631180044
21,210,-0.0527768793014739,0.0128681670905071,-0.0460208911837618,0.0129042539620329,0.2792133188313571,-0.3611875913219207,9.526809863502065,-0.0296373052854226,0.047677142984895,-0.1298048975445566
22,220,-0.0549507673798338,-0.0009599597364225,-0.0488226065051852,-0.0059287874794083,0.0938799985319884,-0.4978424634581165,9.636588853953718,-0.0237114687849548,0.0633758967564853,-0.1792411655257166
23,230,-0.0517155324041824,0.0059224800539604,-0.0535487488456287,0.0145453540602251,0.2534079554969749,-0.4370285488266314,9.603880108574987,-0.0705807494913058,0.0567235681758068,-0.1492298226197718
24,240,-0.0618444453005575,-0.0034545816889832,-0.0571002056769507,0.014036520800039,0.1923622093427353,-0.5443398906071508,9.471438369215557,-0.0216104025640267,0.035756997658502,-0.1390416280464396
25,250,-0.0617200904090171,0.0110582174773693,-0.0566183510752415,0.0070534675979734,0.2500029730681612,-0.5528481999384915,9.58983661196316,-0.0458180249905584,0.0351661609407066,-0.1295480206624787
26,260,-0.0601484806933203,0.0383587729370151,-0.027107908197254,0.0114325820497268,0.2899843221011406,-0.4756239932927378,9.623447895138645,-0.0512905610041302,0.0539253357230172,-0.1144273973971874
27,270,-0.0415302697551174,0.0220320454943295,-0.0344513873465795,0.0066190289704443,0.2815183198727687,-0.4714665682120089,9.592902693240465,-0.0196265957220767,0.0316922144464157,-0.1751997145521394
28,280,-0.0419144251258911,0.0207813555970844,-0.0264152224288322,0.006593311842237,0.3476990480482681,-0.5920366867503746,9.367261014710166,-0.0628103092916198,0.0308386291998543,-0.109907036425061
29,290,-0.0444859744673516,0.012143585577897,-0.0273802885620305,0.0085007244419799,0.3950682730104454,-0.6316846006998894,9.742328247019795,-0.0646715706877752,0.0495679396058027,-0.1778377317218785
30,300,-0.0309776663725932,0.0194497527386727,-0.0135439989218316,0.0104728236494901,0.2374584880290627,-0.5147661404646716,9.71076427503007,-0.0520715047067415,0.0531696614205402,-0.1159778780320155
31,310,-0.0622876377820469,0.0061823989168652,-0.0413672913074904,-0.011208131025553,0.2870194320962269,-0.3203461453910921,9.17777637310394,-0.0412013340382732,0.0577683709976925,-0.1347158841752266
32,320,-0.0288865370094037,0.027790603822755,-0.0262504704871775,0.0268484181828666,0.2473011424363518,-0.5217554900662851,9.503195075629016,-0.0421143717588627,0.0530166306882526,-0.1790990342199281
33,330,-0.0537698860764188,0.0117900678257859,-0.0187623013499774,0.0333992427876854,0.3833399898604663,-0.5804975441162943,9.419735341829355,-0.0794348436522933,0.0307955700942036,-0.1280526618932952
34,340,-0.0380577709015472,0.016738140187008,-0.0488265519781985,0.0042260927670886,0.1643965215672572,-0.2260457491045409,9.484848608797996,-0.0476699371280449,0.0550550466791252,-0.1538428624569312
35,350,-0.0289091025585759,0.0462588205306916,-0.0324785878645766,0.0377188191924571,0.2957970230519132,-0.3585468899249542,9.733456008282072,-0.066911625509191,0.0494919111792785,-0.2017345436604644
36,360,-0.0318336301987416,0.0189305865402905,-0.0399654984064821,0.0197250882802161,0.2916025212127898,-0.3569401660787991,9.338658480539516,-0.0678752932250103,0.0680242388992131,-0.1266482119658332
37,370,-0.0331778057657733,0.0184900524331176,-0.0267145167772413,0.022949898596284,0.1830002646918284,-0.4466285521360587,9.442616957181215,-0.0781187233580475,0.047094736036789,-0.1374823360189842
38,380,-0.0143081402140767,0.0345936024313941,-0.0175639002449637,0.0345778729209991,0.0865211372444999,-0.5273957961412856,9.440668507604016,-0.0599231893393774,0.0444174970024299,-0.2223748199500647
39,390,-0.0409340419275737,0.0196846435998958,-0.0285576372466765,0.0031164154808968,0.2087891520548207,-0.384119850179536,9.14927236153632,-0.0563923039424287,0.041355952079112,-0.127956478624243
40,400,-0.0244954322895376,0.0217020104933346,-0.0149496805909766,0.0270066176396556,0.3968421617713538,-0.513388406765342,9.73849152384562,-0.049917092433059,0.0184340652998211,-0.1139561636146906
41,410,-0.0385905738722067,0.031256121933743,-0.0204213317017016,-0.0040354510578505,0.2870341375185314,-0.4839857147314414,9.66630752805949,-0.0670583436754729,0.0448426696420421,-0.0998715078935029
42,420,-0.0302577386637035,0.0356100357713194,-0.0106679522928015,0.0125284109593321,0.430631582530248,-0.4799870167011113,9.461969889917263,-0.0858887537191354,0.0503541362246315,-0.0923596039504594
43,430,-0.0388076487192368,0.047422983774607,-0.022778577563228,0.0319298075042573,0.3080956827679734,-0.5371709288385147,9.279366624433765,-0.0754001142995072,0.0558481564507533,-0.192134002191419
44,440,-0.023069755624864,0.0296690105338279,-0.0190199307181745,0.0174875083139927,0.2778322144058133,-0.4125877094885636,9.022288799011813,-0.0729428717185369,0.0429829379946621,-0.0819233388899383
45,450,-0.0228052571266679,0.0460391617290219,-0.0105351196338187,0.0265027871955072,0.2887203464240581,-0.4882846044961393,9.258701217186688,-0.072216798337222,0.0487839662805933,-0.1118640738968736
46,460,-0.0089797889546687,0.0173745636229738,-0.016634467681765,0.0129327329806297,0.1427405427544516,-0.5565416420575365,9.401679255127656,-0.0744751172200368,0.0430924997330478,-0.1501291605541336
47,470,-0.0054456255403224,0.0410488246864275,0.0037798412136771,0.0164234034142003,0.4709904329358321,-0.456937473704901,9.421156974701365,-0.0879353366227504,0.0450711514499372,-0.1648773405289417
48,480,-0.0101899245769172,0.0520002897233663,0.0124069153452219,0.0635623021094023,0.2690177450809803,-0.3487282983255023,9.234778330943357,-0.0612286092560773,0.0711172716201176,-0.1509718745315465
49,490,-0.0333076897632216,0.0538671287935212,-0.012578197435445,0.0467127584883933,0.0882320335905696,-0.380992090750722,9.788787296188534,-0.041927279027595,0.036062615121335,-0.1177488227186058
50,500,0.0022926324213009,0.0437232452210651,-0.0240939752620871,0.0515861763360113,0.0612989259593894,-0.1735699398550094,9.412693567409187,-0.0650729769392167,0.0414076689078814,-0.1335521176848288
51,510,-0.0143052713141001,0.0398632611123831,-0.0097958578682667,0.0277202105205305,0.2259274537452535,-0.4954564310807351,9.196637072038923,-0.0326292853695902,0.0460776678446052,-0.0942483542680981
52,520,-0.0111106775126499,0.0559014890172214,-0.007232363899838,0.0346838355722724,0.247807564298178,-0.3736744552498344,9.469056009729664,-0.0403640168721386,0.0488488020130687,-0.1565559944215627
53,530,-0.00299402505024,0.0554069823290094,-0.0085319044222061,0.0401816289869769,0.3378999406151409,-0.4277495285161832,9.521320130864652,-0.0777310512848768,0.0467672107144331,-0.1720752113002335
54,540,-0.0142679073714691,0.049253218114013,-0.0030333664398087,0.0463903733700069,0.3008138710177289,-0.4406084993457642,9.676477233576575,-0.0633178732029674,0.0433063513901922,-0.1461922495040963
55,550,0.0082313618863228,0.0540897655799355,0.0142772331243612,0.0582540947407713,0.1704319233553064,-0.5462331186965407,9.311136302820794,-0.0656453622955679,0.0663952463999202,-0.072288346833045
56,560,-0.0129844867847121,0.0255550971822456,-0.0058507579318875,0.0230265390559471,0.360113326050164,-0.4145133895417615,9.286314066240546,-0.0953569714404777,0.0465653921028315,-0.09692574047832
57,570,-0.0155181198402172,0.0414024800302253,0.0039340022542351,0.0263775992735474,0.1444480772392888,-0.5480143434659839,9.407772214263352,-0.0796878953070164,0.0425736798795983,-0.1446434479533518
58,580,0.0030686268214746,0.0529371262610176,-0.0087490039008066,0.0394580020409762,0.3966114845709977,-0.4604288811333237,9.38972107044492,-0.0938268064287021,0.0464281096179861,-0.1431458284052363
59,590,-0.0187864446760501,0.0388812049597639,-0.0368728918372721,0.018671979737381,0.324501791415292,-0.3502447073164787,9.435384566623108,-0.0747930620513453,0.0515589982551304,-0.0947688012024135
60,600,-0.0002945972650046,0.0520856155154425,-0.0178687389074561,0.0349360025490621,0.2073201626185538,-0.4422129445046717,9.119373382821692,-0.0682031784244748,0.052369414721347,-0.1750884593275849
61,610,0.0048506709053786,0.0452004503720835,0.0178625197750391,0.03669936289166,0.2538462681251402,-0.4230106077701237,9.238707115153789,-0.0820049678589418,0.063198419964615,-0.1120654377118395
62,620,-0.0271429382276631,0.0515221409477688,0.0018815296539832,0.0305489584621449,0.4674552038828584,-0.2991727380541544,9.306205244680976,-0.0830759843057734,0.0414391198546434,-0.1236781723506732
63,630,-0.0055543696290179,0.0356631565989043,-0.0270082797579821,0.0296931808115468,0.3884985465354085,-0.4749360017797246,9.364619241443728,-0.0843987595547039,0.0397389640970816,-0.1371463679084865
64,640,-0.0026914839812356,0.064864732812709,-0.0142902422826131,0.0496247401859332,0.215683824656962,-0.4405512296188297,9.470757830881224,-0.100904319203884,0.0466118534250776,-0.1096143322901954
65,650,-0.0133118467106696,0.0456107385671227,-0.0067090445605946,0.0386317796417865,0.3914455893441718,-0.5093669299108796,9.609751212873611,-0.115420213941651,0.0532073263764223,-0.1127147640714656
66,660,-0.0270738193194861,0.0391824586043376,-0.0143700791246191,0.0389874940532298,0.3479485790995175,-0.5681732937304032,9.6653519146125,-0.0795163213838539,0.0356181010528794,-0.1389894142189694
67,670,-0.0061518596337752,0.0397884598705968,0.0214412583673438,0.03838240011062,0.2330710518397548,-0.4414622350974531,9.05063918257366,-0.0592326029721685,0.0367569537016703,-0.0945364692631078
68,680,-0.0344694998305052,0.0314666263840641,0.0198720215404003,0.0311745190738008,0.3256418021886859,-0.4849692074586282,9.502701075273302,-0.0795800217442691,0.0453967397374007,-0.094645533231588
69,690,-0.0210806646010079,0.0374938976178914,-0.0187026188350209,0.0255924678668854,0.2572445996507643,-0.5218454004469983,9.459773945294346,-0.070828822975328,0.0468701827764456,-0.0769494557150913
70,700,-0.0224548748670187,0.0275677695655563,-0.012549656098139,0.0266952220251998,0.2661727927499192,-0.4222881037968371,9.201133286644772,-0.0865202075903143,0.0476646020583297,-0.1485176813058841
71,710,-0.0067898309048433,0.0465823806664455,-0.0097879517303662,0.0120141429045536,0.1910377261653061,-0.5677015882229796,9.497799470985584,-0.0770622812775161,0.0505833398314463,-0.1150173853883833
72,720,-0.0050519312185967,0.0228674476238274,-0.0002420091693946,0.0311683100448039,0.3877885997125824,-0.444699282849801,9.227701579005876,-0.1095226719263598,0.0655927409838086,-0.1102847611741777
73,730,-0.0266811905554085,0.0203257194508551,-0.0066924607097404,0.0311627288877565,0.3626250146956697,-0.2031075141999213,9.15188510519965,-0.0838962110032996,0.0562100130296508,-0.1425691566555517
74,740,-0.0175116884293025,0.056228126970531,-0.0108075938081919,0.0041249224436298,0.3361044002529516,-0.5329355787542848,9.594297549211994,-0.0767534644506856,0.0600901798564614,-0.0629796905048206
75,750,-0.0188887599543535,0.0237764229787406,-0.0158631587716029,0.0363154273963598,0.3162097660132517,-0.2667918305963679,9.181694549586958,-0.0927072495388224,0.0552621602397641,-0.1591463381866346
76,760,-0.0199172340569916,0.0269544122762697,-0.0149626384572321,0.039363708230928,0.2613854099611367,-0.4147034695876908,9.706324934390416,-0.072175060937164,0.0639938856655052,-0.0858591195881053
77,770,-0.0083036504078645,0.0274987796030589,-0.0032230867542,0.0341719070851004,0.5908520408523809,-0.3145747321478397,9.19482021530525,-0.1219279526650785,0.0534268378240569,-0.0625834178163472
78,780,-0.0045812114950818,0.0299701528826713,-0.0095106390528031,0.0375126173165857,0.4418070012504679,-0.6097002006045829,9.726707644838523,-0.0740621204397764,0.0528260009760832,-0.1310605647102599
79,790,-0.018851970420513,0.0325308156271458,-0.0102877029041303,0.0209871508859696,0.324796478671755,-0.474688436268125,9.600192301926077,-0.0679421351485711,0.0442858214969437,-0.0799586704352986
80,800,-0.0143438677509099,0.036066285799939,-0.0275217123219375,0.0322771007884402,0.3002483328797805,-0.2428567284885175,9.43989775714074,-0.0888866060983785,0.0411684530784071,-0.0856212152021672
81,810,0.0036650163967619,0.0200516634340759,-0.0154325251594537,0.0275022594046268,0.2978046236996073,-0.4110145809383191,9.47099060606869,-0.1021934554409987,0.0514561488425244,-0.1262908767366025
82,820,-0.0264311991724167,0.0287052303338517,-0.0314760989238017,0.0355587985056402,0.2468080017304481,-0.3553276923830541,9.22207078058027,-0.0626277806830244,0.0502389649841114,-0.1083757079823584
83,830,-0.0169831420399756,0.0208642680509278,-0.005245238261997,0.0419811543571276,0.2435184830124416,-0.6669201103405651,9.23816808607212,-0.1052117548134264,0.0316936729382395,-0.0876386983474916
84,840,-0.0105639393560573,0.0318988497485656,-0.0135521997049689,0.0239264018402681,0.2022501771208244,-0.4989614207714483,9.380749004356586,-0.0748414091399069,0.0452595104401447,-0.1095327668492685
85,850,-0.0013587697103291,0.0397056791093389,-0.0078189004585826,0.0372906298621876,0.2295583187793707,-0.4886374773138757,9.420324720108814,-0.116261953343492,0.0584310257376933,-0.1320170449124674
86,860,0.0049507683675665,0.044597659250559,-0.0064170007458487,0.0289419394721563,0.2176843909424263,-0.3096726447503146,9.26650615322674,-0.1069222438974612,0.0494756891874313,-0.1027520279673593
87,870,0.0025590094937729,0.0459072092723421,-0.0004885808834018,0.0462880454841873,0.28376615737734,-0.4964832003708105,9.316302202454551,-0.1147686317046068,0.0437095104142173,-0.0916195108407504
88,880,-0.0173974010479764,0.0317542988138236,-0.0150665060896098,0.0224949922526191,0.4306212295894617,-0.3383188423675893,9.48155183474442,-0.064461160199486,0.0741381683662315,-0.1303689441869273
89,890,0.013823866112152,0.0254261605180391,0.0111467356645052,0.0386241967469608,0.2425322639380089,-0.3130833203202638,9.374633400073009,-0.1096323837322822,0.0504619305234113,-0.1522767087867934
90,900,0.0059157881886591,0.0467047397139379,0.011980362594259,0.0573386357554182,0.3774900745450777,-0.3961627156528575,9.48228713821314,-0.0853358895143204,0.0486320316911635,-0.0636832075924412
91,910,0.0068197708209568,0.0627231706163787,0.0219503405932471,0.0368323090767413,0.234007072048383,-0.32109161377998,9.520423246426793,-0.0744050901064068,0.0390563832412635,-0.1595820118093928
92,920,0.0094488241732158,0.0317796327534741,0.0244049187476012,0.0432463624433557,0.3443793858028982,-0.4206486848221364,9.567023639772335,-0.1033356253730136,0.0500967834405202,-0.0836246763568283
93,930,-0.0139553142568326,0.0484523261267678,0.004841462333406,0.051811859632636,0.269000497952083,-0.481781653915857,9.431595618474436,-0.0949324547168368,0.0766961902462145,-0.1578189069111473
94,940,0.0183338989884704,0.0752488466812651,-0.0029685597922668,0.041356063293987,0.1521612609837157,-0.2735252557067991,9.626762865712488,-0.1325691191893547,0.0431441130820407,-0.0789304834846551
95,950,-0.016349043770268,0.0507591154977708,-0.0103195774076517,0.0463084538624636,0.3816985943977435,-0.2773636010797105,9.356704762447825,-0.1172795310623294,0.0363991999133794,-0.1262499862682673
96,960,0.0044685641084469,0.0336615174270338,0.002467740775256,0.0343009944348189,0.3415372690140911,-0.3652658699391227,9.024762541223362,-0.1018474513886128,0.0348208206318913,-0.1134243301723112
97,970,-0.0058782856257379,0.0546977249541893,0.0144657171256682,0.050627820463983,0.2591702102215933,-0.4374718499499719,9.326186655725843,-0.0913812716402637,0.0693909216056044,-0.0709316386747174
98,980,0.0224990142195538,0.0470787127574014,0.0188150711628948,0.0583758528325764,0.2779411376131811,-0.4884424352378127,9.20627092856304,-0.1161655440865811,0.0426389602062786,-0.1052663249891098
99,990,0.0060900291757367,0.0605858893264432,0.020580178164225,0.0375399208664991,0.4241886454872888,-0.42710103968007,9.483294757075544,-0.087546918032654,0.0504225732557455,-0.07926413456677
100,1000,0.0109803214687337,0.0359667592860757,-0.0073397187560084,0.044958317312436,0.4630374867821031,-0.2885442811958525,9.063571974873453,-0.0829926042091925,0.0426024403892533,-0.1000335176942678
101,1010,-0.0104634674885109,0.0414669521730646,0.0042198397630123,0.0373638513817251,0.2241268042691603,-0.4295119926636435,9.32584111272504,-0.0625571516598021,0.0281880960563599,-0.0973933367698611
102,1020,0.0043928568207347,0.0482880482301924,0.0199101723262159,0.0288905533840336,0.2585550337684454,-0.5089618649182582,9.15318869995683,-0.1075603994444633,0.0612893093787254,-0.1070734708426755
103,1030,0.0192197293016351,0.0595384486795661,0.0114712124939014,0.0531988374518178,0.3293507760288531,-0.3941723270071796,9.309039785998786,-0.1093336989578458,0.0443441128189793,-0.0506363050481977
104,1040,0.0250872641590891,0.0551082568338192,0.026554966575032,0.0582723783415108,0.2935185420364518,-0.3292267767162425,9.049678633482216,-0.10734637013896,0.036478479994436,-0.071886300617606
105,1050,0.009634360206009,0.0577631112599291,0.0139148237300591,0.0411947930898757,0.4625056819476719,-0.4603664805409118,8.78876512123175,-0.0643624829624737,0.0383670611500141,-0.0433256095706196
106,1060,1.3968774725578014e-05,0.0355785477469496,0.0085463227473848,0.0421813787089923,0.3972614192569295,-0.5952239861504975,9.733338754276591,-0.097848943218592,0.0391003877740506,-0.1348252290477683
107,1070,0.0039433330791778,0.0535269154924273,-0.003081697204101,0.0268249285135229,0.2413515592340302,-0.3815712808345178,9.377379436663018,-0.1011080735835665,0.0453022055911916,-0.1529459073113537
108,1080,-0.0180243203131562,0.0478302116092031,-0.0039374305641203,0.0328171566556259,0.4245292690855013,-0.3003033507869006,9.657447806589255,-0.1068562793730215,0.0464849676947038,-0.0616115076363843
109,1090,0.0017576761086006,0.036723860338736,0.0117080968996205,0.0268665913698997,0.2151403094438128,-0.4430461191738864,9.19995795049834,-0.0934974090751208,0.0371788605882178,-0.1080533182240669
110,1100,0.0019038469330828,0.0595304081966653,0.0264618526894051,0.0445575044260757,0.1829899336145468,-0.2858231395482744,9.178792847241676,-0.0613494206566353,0.0513151521913023,-0.0782432829887759
111,1110,-0.0209568270913038,0.038021876851689,0.0031300958195334,0.0278005773934866,0.3617602685067085,-0.3482679674696894,9.306752995107551,-0.1167971535298105,0.0423146769553761,-0.0910118554930424
112,1120,0.0027017921086607,0.0370262176736223,-0.0129626606901491,0.0043844978400872,0.2421338870459763,-0.4271136483459526,9.15788193769654,-0.1016883907517731,0.0377950493256863,-0.1161518730332316
113,1130,0.0048598210113684,0.0321150779157297,-0.0173820442312442,0.0252659731769324,0.2043935731566099,-0.3792213822592482,9.160672296321833,-0.0917681562528639,0.0415875554574321,-0.1119066176126706
114,1140,-0.010073446514848,0.0354590321014808,-0.0180978688746886,0.0372197359450701,0.2402155325909263,-0.1615528449409394,9.189028811381878,-0.0785539671493696,0.0564734787913582,-0.1178895583189785
115,1150,0.0093180369382419,0.0437174056378124,-0.0170918140538284,0.0361713786416392,0.0935245095921919,-0.2655029546530928,9.33799112969788,-0.1078117802133124,0.0401691913687479,-0.1051898730209903
116,1160,-0.0136711775091534,0.0372528012498725,-0.0007151579087775,0.0075657412050301,0.26363215483245,-0.4828551336734608,9.140323083785338,-0.0979922059739185,0.0552645492734269,-0.1484497849072308
117,1170,-0.0029904376004938,0.0419186770504354,0.0119756318525633,0.0339052438505521,0.0393669518208064,-0.2141107325700331,9.182475537245212,-0.1290997356923129,0.0311654089650216,-0.0714087198966498
118,1180,0.0126929024549256,0.0137549801396658,-0.0129669330525407,0.0449616041654109,0.1044606704887154,-0.3743085752884941,9.262301268906146,-0.0686844472641696,0.044657035026348,-0.1009144349119047
119,1190,-0.032372973341798,0.0137663907525977,-0.0100721994047247,0.0272306316774023,0.3716250227900551,-0.1341110629545758,9.453365266427376,-0.0519422582586103,0.0494862341879128,-0.1149828981398046
120,1200,0.0044487505305043,0.0211487628170629,-0.0092496878171149,0.0248395960381264,0.2978739597375556,-0.3257069817518986,9.392282611467406,-0.0780426950697766,0.0517242886200854,-0.0651395682636027
121,1210,-0.0092889005255823,0.0416974135214031,0.0024788874633326,0.0250096111545055,0.3489050592602607,-0.2861626855320289,9.118318122831065,-0.1062744188906807,0.0468982476315139,-0.0798757537446048
122,1220,-0.0125055780735061,0.0552184307302057,0.0054784647784896,0.027904915234296,0.3710992011563019,-0.3290095831229616,9.101295381415095,-0.0764147813502748,0.051475225230135,-0.0498751830811797
123,1230,-0.0330230978063857,0.0349962134464462,0.0020150276107341,0.0024753855494425,0.2489127980281285,-0.2779820384488626,9.366653167106117,-0.0870644232788351,0.0646999844622199,-0.0801854865117314
124,1240,-0.0599297297613256,-0.0034736139986857,-0.0190701439438827,0.0274959272500412,0.1823790652910875,-0.4518224126363969,9.275285577784022,-0.1112550054960854,0.05536954517127,-0.1223819007214699
125,1250,-0.0282842075034975,0.0259105617190437,-0.013587033113994,0.0185633754502216,0.4292829766774937,-0.35805863535042,9.105833514263358,-0.071001719670775,0.0590014042923313,-0.0645887027286287
126,1260,-0.0321111928969436,-0.0014906617404538,-0.0148745598604612,0.0127649455455048,0.2765285730975156,-0.2235103644274294,9.443759709077868,-0.0908155908910167,0.0636213887394804,-0.1338321251214854
127,1270,-0.033892974718682,0.0133622106894905,-0.0100788561053573,0.0164064982402344,0.2890951089633532,-0.4841731049248349,9.091345710292709,-0.0766904747876745,0.0467456343507248,-0.0794848948581516
128,1280,-0.0239698878337087,0.024268174362543,-0.0249583051137225,0.0050329378435317,0.1705482976198593,-0.36712544444004,9.280259713403934,-0.0898353551932657,0.0561592948981587,-0.0490416011123954
129,1290,-0.0102179644960847,0.0220291812098231,-0.0183386958509263,0.0265079259484871,0.4574249248207502,-0.2587966077858173,9.077932205828846,-0.1452279667066539,0.0615896147124076,-0.1462920084363345
130,1300,-0.0197874189439708,0.0119658197845953,-0.0350210841050747,-0.0103389018708451,0.2952071119886426,-0.306090799803744,9.419878126244054,-0.0875073198531644,0.0350591691319837,-0.0718286500644746
131,1310,-0.019510877709517,0.0213064338585318,-0.0172613870447564,0.0052239470252155,0.3739798255795623,-0.4255905315073888,9.308427958546991,-0.0828331994492963,0.0535222381699808,-0.0716652690127016
132,1320,-0.0185312198316013,0.0118247158696865,-0.0238038921022977,0.0153186967889399,0.371117697016583,-0.1770106111050498,9.203717074582926,-0.1194855930328459,0.0433715117872195,-0.1286605607090831
133,1330,-0.0258065661587919,0.0174210563019882,-0.0102440803050173,-0.0045660512744147,0.1262775697149085,-0.3619747364916635,9.26125689523214,-0.1153883463277562,0.0380176801798074,-0.1072463407106331
134,1340,-0.0055207785811399,0.009483010026552,-0.0307327008794325,0.0303727944140095,0.1366555644256348,-0.3026201936872167,9.150120109868777,-0.1214355958466543,0.0336166419946343,-0.1292136491904483
135,1350,-0.0312693670869151,-0.004425160324501,-0.0166015781180029,0.0037063578787209,0.1827905944463789,-0.3969398164005482,8.845230602091672,-0.0699216106188068,0.0442278792110242,-0.1035296804849159
136,1360,-0.0266453029419063,0.0115696633999741,-0.0178203923106204,0.01192886890315,0.4192216430812934,-0.3052238150568526,9.254766186116662,-0.1157874206308862,0.016151590918946,-0.1249968982037383
137,1370,-0.0274645696166033,0.0051116306829111,-0.0172164913575761,0.0148717697072812,0.3109497648685456,-0.3389298446585514,9.308872634707935,-0.1078583736161317,0.0557000345441373,-0.0529491779054004
138,1380,-0.0095925665121636,0.0369317900810133,-0.0090721800507724,0.0150264082020092,0.2873425340607687,-0.3247840366017588,9.08716013088326,-0.1485106530786404,0.0241426383971117,-0.0693945130019562
139,1390,-0.0372714506461257,0.0153117431330958,-0.004013048253499,0.0221655239710416,0.3267995194525225,-0.1117079501551005,9.17114574848932,-0.1024127305620136,0.0271026558310964,-0.086173718036746
140,1400,-0.0106815168730217,0.0214702193895882,0.0002789687441206,0.0256775085874899,0.4074939252863806,-0.3743130760808589,8.660407388887837,-0.1291127214960197,0.0570334857351962,-0.0910320356035418
141,1410,0.0041850840343463,0.03154726452673,0.0006150168952662,0.0346058393581771,0.0675017918201431,-0.3360930219564279,9.021067009048972,-0.0794581080930592,0.0447961141436338,-0.0148020757378496
142,1420,-0.0365895712724851,0.0138708324062264,-0.0234474064558708,-0.0019500168894306,0.1680927504859615,-0.1907043608079023,9.349414580439994,-0.1044465143367642,0.0440830441011101,-0.1108868688654644
143,1430,-0.0180751899478223,0.0150396686244033,-0.0238621526215401,0.0112423462390862,0.33362854598162,-0.412605961354213,9.16461267824766,-0.0612561773425281,0.0382875945186385,-0.0855049063761044
144,1440,-0.01940424747771,0.013911412575326,-0.0197008158023046,0.0238587530232028,0.2197370052118027,-0.3286086849178198,9.568007247842296,-0.1012671187198561,0.0497499169292875,-0.0808869332496555
145,1450,-0.0004485211526093,0.0276821417576197,-0.0051395308098526,0.022846955439023,0.1949262081840588,-0.21574655080852,8.959577809247595,-0.0778444759930838,0.0518897156924999,-0.1044305244392422
146,1460,-0.0080814728415642,0.0341558791530633,-0.0149837397709349,0.036397068606546,0.2283417603148083,-0.2419370071797921,8.854363483885589,-0.0972657367843516,0.0386233898328282,-0.0407920729529731
147,1470,-0.0106847962575577,0.0207495736368306,-0.0179530165359415,0.0230520644740832,0.2754190393022313,-0.4358386792612078,9.64734671539904,-0.1212330655379872,0.0204363174850686,-0.0842180929603072
148,1480,0.0065410032453496,0.0437865143547054,0.0098515301797032,0.0217164910655662,0.1860940060242554,-0.193368596632814,8.87184215733222,-0.0514639540281251,0.0248944976253911,-0.0671161074504423
149,1490,-0.0230772765757218,0.0180660175654409,-0.0231925587686779,-0.0071077675334397,0.3599384436074664,-0.2286391085663543,9.263568675799451,-0.0552596640970511,0.0369919235149222,-0.0682607948077886
150,1500,-0.0060624318122041,0.0238472586740248,-0.0246409170861199,0.0311350130468491,0.1466041333212187,-0.1804299206025648,9.20457610714254,-0.0848258168538591,0.0555362408769352,-0.0754503397555057
151,1510,-0.0042691920967398,0.0373705343427183,-0.0125026277972212,0.0190921990460144,0.3658440792594883,-0.4607034300791701,9.405525982038291,-0.0786634446912482,0.0325423602635283,-0.0736833996253799
152,1520,-0.0150018570812907,0.0119848902653465,-0.0136587358207454,0.0058531207285385,0.1104779107208644,-0.2067925390117579,9.649342946972713,-0.0778093683977704,0.042713515274215,-0.091920208872121
153,1530,-0.0182687706248764,0.0294503411034694,-0.0045404851566116,0.0142558904497744,0.1539503708994548,-0.3382180994609636,9.600295760975351,-0.0910614199053087,0.0449920905603277,-0.0617291492784786
154,1540,-0.0308935258110203,0.0030221173952885,-0.0249492635268449,0.0067165233353628,0.2444106027124644,-0.2933293201259243,8.979981287385927,-0.0896226009229279,0.0304829284423506,-0.1220228198835942
155,1550,-0.0104304059879573,0.0073457598573207,-0.0202041636723774,0.0055980749025307,0.3505780883259106,-0.174241766276986,9.36825609912883,-0.0930023026672191,0.0294035835302902,-0.1152796368339392
156,1560,-0.0104701170036799,-0.0019774570958055,-0.0305899897039651,0.0130078609808055,0.1413781330661994,-0.1420976361959814,9.29269965997435,-0.0500181326384869,0.0413115868703405,-0.0403307253427801
157,1570,-0.0027640732312366,-0.0075375260824308,-0.0066294415954936,0.0091193158719364,0.0976672908501724,-0.2094714010461432,9.363454848236168,-0.0691128057430067,0.0427016936370016,-0.0504351370538512
158,1580,-0.0338898643197412,0.0210068796205885,-0.0119404903843568,0.008307872534794,0.199393438583213,-0.0973066316949489,9.356883678623444,-0.0655419992331745,0.0431363970553485,-0.065494336973548
159,1590,-0.0099180546329116,0.0307011477302548,-0.0248243616630321,0.0030270675787583,0.1369272992483743,-0.1468750280225625,9.542301577875168,-0.0964068952728092,0.0447888310988025,-0.1092266225584351
160,1600,-0.0192729345190145,0.0139750082386323,-0.0129031908944587,-0.0175703784032226,0.2725417249547416,-0.3588746506906916,9.414393495363743,-0.0806044671553099,0.0107937108247095,-0.0576629861942404
161,1610,-0.0165112880451357,0.0069899616537801,-0.012439843117333,0.02083867867404,0.1015929684860624,-0.0874110278443337,9.565522441507392,-0.0661166472128881,0.0456084944419129,-0.0996428874700997
162,1620,-0.0098764508064004,0.0169403141525472,-0.0078199609720622,0.0039791201684605,0.0115580142027842,-0.2019990550395154,9.70296270944784,-0.1095761007214668,0.031442147168768,-0.0066826058342343
163,1630,-0.0219158032531282,0.0082266554242728,-0.0288092269814669,0.0045000050975109,0.1589906206932498,-0.1930054236418334,9.01509195489184,-0.0817664459977062,0.0227289839905531,-0.0638580933799722
164,1640,-0.0277199963294566,-0.0098529400975066,-0.0327869858025418,-0.0006752179228901,0.3467271840531176,-0.2573390261632514,9.280142203072728,-0.0707939211603101,0.0400816509394002,-0.0898269649245345
165,1650,-0.0225717617239987,0.0069687047283881,-0.0089718556968898,0.0203007208862426,0.0142767728348741,-0.2365218934281127,9.127706343437064,-0.0753316992132048,0.0335406578752386,-0.0848790181734296
166,1660,-0.0266797757038783,0.0059056986941435,-0.0284636735053586,0.0174450546149753,0.2703601220886537,-0.1494015251588542,9.765634942436352,-0.1042627128509362,0.0420209135320897,-0.0682048743792302
167,1670,-0.0231373843870804,0.0080822606161909,-0.0092677476763962,-0.0076610222076621,0.1491256644823344,-0.1250066759353501,9.308384529538056,-0.0902701147557357,0.0308876031209492,-0.1086279149581689
168,1680,-0.0302719435695249,-0.0094599466084425,-0.0261533490061381,0.0017738905454596,0.0873977030638211,-0.215941289309936,9.31911504299773,-0.0639647515254506,0.030840812923181,-0.0290028647185292
169,1690,-0.0338767784570988,-0.0058740232198679,-0.0381449592313388,-0.0306477719156284,0.18971413363183,-0.2254459488734615,9.553816817722364,-0.1126288836567974,0.0388453918214021,-0.0775913894847202
170,1700,-0.0237929793583092,0.0057235303757549,-0.0234006573880994,-0.0266152807155095,0.1699724857860677,-0.3792013517714881,9.632963241127774,-0.0892110376513944,0.02968461790546,-0.0923114696620913
171,1710,-0.0291138847422013,-0.0040344851462497,-0.050121886330991,-0.0280012743671261,0.2081741127980718,-0.0016153731458393,9.702496382556085,-0.0386587418817621,0.0022095795537273,-0.0921486661902728
172,1720,-0.0439305650459299,-0.0083968386934355,-0.0500125809623442,-0.0308373870968341,0.3294910266884365,-0.1362786074246904,9.249429813128744,-0.1188516276791339,0.0458967440967008,-0.0907036780950232
173,1730,-0.0438545178209439,-0.023590198185445,-0.024111392613755,-0.0340182319051489,0.1669323992593747,-0.1743756809414207,9.069822158257884,-0.0692280986080728,0.0269793213594253,-0.0187913260493331
174,1740,-0.0424369774791536,-0.0167495224216971,-0.0312151914161753,-0.0103119192520545,0.213693709522398,-0.251169113160462,9.4273259284386,-0.0986709180314463,0.0359059378092228,-0.0216642132185664
175,1750,-0.0467752160005835,-0.0086526645343034,-0.0142872037700669,-0.024269577011781,0.2645460559870838,-0.2062854403212828,9.653060839608736,-0.0907731140826203,0.0399298903279665,-0.0985635400275736
176,1760,-0.0398844078661692,-0.0089157682248305,-0.0352332621666172,-0.0301111659224722,0.2827085932353148,-0.4043560351516713,9.409462938793013,-0.0869408650850038,0.0133534532909392,-0.0171530320586602
177,1770,-0.0403338142305688,-0.0068761998607357,-0.0426230128048443,-0.006309270323429,0.0608491095007949,-0.0727948853925237,9.186131173140694,-0.0612313560388746,0.030690454635209,-0.0258520270826997
178,1780,-0.0335420566228444,-0.0061939799594569,-0.0565618103192064,-0.017227027859241,0.0770789704454617,0.0097418615104783,8.978239754836252,-0.0821097641724239,0.0264759450195185,-0.0827341823263973
179,1790,-0.0453456255953329,-0.0144059730832828,-0.04616624762884,-0.0168626420576335,0.3333685252645039,-0.2789244528541231,9.310019801743117,-0.0575285898110665,0.0327226906829956,-0.0564208486592681
180,1800,-0.0407803283541922,-0.013202850351695,-0.0377850518284985,-0.0259789759655547,0.032766800445128,-0.163171276236876,9.232202986544666,-0.0993335521319418,0.027460185628832,-0.0482914558683099
181,1810,-0.0483492130149577,-0.0353790963373742,-0.0368027643853938,-0.0279861470817843,-0.0043921225515379,-0.3391850160412408,9.44631089708575,-0.1021003180125088,0.0216552064894449,-0.0478311707844839
182,1820,-0.0367880710709827,-0.0025995566377731,-0.0418276594334377,-0.0211127163011254,0.1555224971344955,-0.1257588862999231,9.549721381531764,-0.0491236536201531,0.0310253307955412,-0.0371264471356205
183,1830,-0.0546755181116505,-0.0089464854350062,-0.026189787213308,-0.0168795122741682,0.2091890534502745,-0.065515706397675,9.356659976354782,-0.0755937942342071,0.0247278435696763,-0.0225194888561009
184,1840,-0.0359444536426075,-0.0052197349804292,-0.0204546873996934,-0.0076660952312145,0.0726000626398746,-0.1212872626841831,9.93592313207158,-0.069775831634324,0.0169108308736032,-0.0695830206829176
185,1850,-0.0626951222922069,-0.0117763619045783,-0.019219191125417,-0.0224379865406285,0.0447134607906671,-0.1765011459860015,9.75816599400137,-0.0796962467366903,0.0189603900687515,-0.049452855803287
186,1860,-0.0380933030931836,-0.0171635033543721,-0.0337491744302358,-0.0113367193618386,0.2679135530214935,-0.2383507508924276,9.765223247233989,-0.0480452093820077,0.0233172908364809,-0.1129001677237165
187,1870,-0.0251549987332598,-0.006894835351138,-0.0267562552105255,-0.0117848466183622,0.2336618201733851,-0.025180720567189,9.680449812094986,-0.0355393252709118,0.0201045803373348,-0.0416281978406305
188,1880,-0.0478976716633775,-0.0017078013547575,-0.022854020324704,-0.015371145255928,0.0643031880430405,-0.1372563656333383,9.535426662306374,-0.0713858984548337,0.0313814516239125,-0.0669550557917242
189,1890,-0.0306515994045673,-0.0179308554673742,-0.0261190957233835,-0.0189571930862744,0.0551930294213631,-0.2462202188440995,9.631165546761778,-0.0267144415032863,0.0094209170594396,-0.1131745420983166
190,1900,-0.0351244293395991,-0.0118482177774905,-0.0271268778027367,-0.0368263282794256,0.0825847516609739,0.0330687874563555,9.707160204965502,-0.0567200259805185,0.0354829496080573,-0.0296389523092561
191,1910,-0.0119833869344328,0.0011332594288357,-0.0309209941144491,-0.0210340728649089,0.1451725505868357,-0.3780352097010351,9.36398764515954,-0.0956467116672205,0.0264183446568769,-0.0406606533577393
192,1920,-0.0523816132512786,0.0164476564175055,-0.0077709656299075,-0.0099118644825431,0.0717262380212183,-0.0196171578692954,9.707572861027984,-0.0840446591338779,0.0309029965652239,-0.0104771886620837
193,1930,-0.0351616964726839,-0.0084681397565327,-0.0307826605703743,-0.0168895996197506,0.0816085202448081,-0.2054290825736735,9.295969314640256,-0.0759732110658804,0.0107906294878626,-0.0217716438223034
194,1940,-0.0238956219164651,-0.0127009213450999,-0.0255019368040248,0.0010943350124158,0.2828707789556117,-0.0627166975898634,9.618190786778625,-0.0668383995188206,0.0306452887071499,-0.0519616514463867
195,1950,-0.0239788667264456,-0.0147652807141999,-0.0146294908038534,0.0037307473231031,0.2275880323522298,-0.2315912927702687,9.58011026094367,-0.0452226908418576,0.0255807158280567,-0.0445233128616166
196,1960,-0.0189716086638776,-0.0215837832425508,-0.0215125827379091,-0.0199739572765605,0.1018431283745508,-0.2236142501552946,9.416578307655564,-0.0243509991576029,0.0198885588627483,-0.0472524002755067
197,1970,-0.0073649386953994,0.0180208921459356,0.0009548949479931,0.0051875426690619,0.2214117517061543,-0.2384221938661061,9.276851496081305,-0.0604557862449237,0.0075195977304695,-0.0992073216440977
198,1980,-0.0076229414297163,0.005278412049616,-0.0033626620732461,0.0071007580135299,0.1355427823595709,0.0606901682817334,9.63634371846628,-0.0277223261797083,0.0439403103997396,-0.0303313981329405
199,1990,-0.0159298666595867,-0.0152354142340642,-0.0154131816865658,-0.0296929567608089,0.1653780588208336,-0.3070246981297558,9.8331886123208,-0.0509692217366711,0.0238644194837679,-0.0243961876852
200,2000,-0.0033294011444345,-0.0008910389588451,-0.0027773409849266,-0.0141365137929183,0.1171442149325741,-0.1246592286927125,9.557035236944497,-0.0419119168521854,0.0318923304161562,0.0090004664720567
201,2010,-0.0005528711862597,-0.0019915970340054,-0.0062438056224401,0.0110708030223204,0.3299421685518841,-0.0498937977560139,9.683655430692616,-0.0409675244475116,0.0056775864243367,0.0024009302469308
202,2020,-0.0191169983292959,0.0213862716994255,0.0130160358555121,0.0095967492744151,0.1124918769671111,-0.049541331630854,9.505893920782404,-0.0417437097780412,0.0206956844713753,-0.0477968447112851
203,2030,-0.0363913512884926,-0.0204375135488373,-0.0133554944277394,-0.0204580108947469,0.1711279148699425,-0.1146897671648972,9.43973950709676,-0.0216533423459707,0.0221707677124041,0.0054609327907564
204,2040,-0.0101391399478067,0.0028737207618346,0.0061746137189855,-0.0101746916322899,0.0041416385358425,-0.1370588737657007,9.600918233059591,-0.0311063894571972,0.0254710578533751,-0.0059627347003133
205,2050,-0.0049290047287181,0.0028469224093034,-0.0100879783903498,0.0037645822321806,0.2287464462450197,-0.0640672577350158,9.729350849291956,-0.0719975192244889,0.0127479172058484,0.0342858264823552
206,2060,-0.0191665089952544,-0.0094407478363609,-0.0234830708344993,-0.0061803668606722,-0.1300273636626149,-0.0397599520376181,9.612657388271714,-0.0321267538915466,0.0159975853170781,-0.0257161853170545
207,2070,-0.0279570715379101,-0.0133839743447559,-0.0231264901120623,0.0076722649259996,0.0897649497435621,-0.2147265674776559,9.671175850786405,-0.0460509254631165,-0.0002822596167824,0.0656816741225678
208,2080,-0.0340440813201135,-0.0039846875356687,-0.0108680525444129,-0.0089175623439241,-0.0064476887712906,0.0566672779052808,9.658692385854543,-0.0375024026324938,0.02367342579617,0.0064824095941749
209,2090,-0.0214595159281476,-0.0212244006272067,-0.0420871436807377,-0.011280268488563,0.1073280723361729,0.0165345497939903,9.815769809974684,-0.0664566780870127,0.0195690746868004,0.0002629988371638
210,2100,-0.0083491519724949,-0.0095241065226125,-0.021958564246967,-0.0295019549562177,-0.0089864331851944,-0.2685876223813432,9.458898453319495,-0.0419733029384545,0.017228205649332,-0.0732106975343765
211,2110,-0.0197793063979101,0.0091791348654299,-0.0139830562135669,0.004288450893909,0.3693615440141695,-0.0697688671809505,9.806515184662498,-0.0545654523722998,0.012818049866722,-0.0112920992636665
212,2120,-0.0027267722613939,-0.0265266575170058,-0.0098183617800334,-0.0321613249773465,-0.0023724973346029,-0.0171343165248041,9.711386847598472,-0.012221110059904,0.030499473343493,0.0253264399878554
213,2130,-0.0144666167932684,0.0048851799287004,-0.0360965655839932,-0.015463123644383,0.1067905846168605,-0.1641608811478665,9.713031024735956,-0.0446073322941357,0.0240384278193057,-0.0061818849837005
214,2140,-0.0286135857759539,-0.0065283915907933,-0.023804250532908,-0.0174812663394174,0.0649841697845465,-0.155640247439584,9.424176482372337,-0.0135238075235224,0.0236674916823626,0.0255125908165539
215,2150,-0.01879774737951,-0.0223101641239121,-0.0243325567950209,-0.0209262302089287,-0.0059899591890218,-0.008089715338874,9.699194969732927,-0.0033728167697025,0.0081460686283116,0.0489302071060576
216,2160,-0.0171249804057713,-0.004951756935568,-0.010270688649416,-0.0076467565472355,0.0887233177280401,-0.063802384116064,9.851291147521827,-0.0193490497941998,0.0265346763125479,-0.0227710128420803
217,2170,-0.0262341896360702,-0.0078121926331449,-0.0170836555716224,-0.0193098379929504,0.0500105944154111,-0.0514470796718229,9.890157984910491,-0.038260602406415,0.0125141045407693,0.0166909641158152
218,2180,-0.0078302661729816,-0.0419383078916218,0.0003453099211465,-0.0160966770700573,0.0571149884869886,-0.105301057674257,9.79025803245185,-0.0009026249957271,0.0106334879350206,-0.045252251120712
219,2190,0.0046449732728439,-0.0252234797151263,-0.0266585981094987,-0.0007800616769759,-0.0576646562202139,-0.0393499914817323,9.774364197316512,-0.0280910602837247,0.0100610622988072,-0.0423060074861211
220,2200,-0.0102584706562517,-0.0137192236813698,-0.0099027494753958,0.0189942842418947,0.0361169248619906,-0.1990180073434098,9.622010704563492,-0.0375297290265781,0.0049142705627,-0.0508114839708206
221,2210,-0.0380002405927535,-0.0282707345782466,-0.0449123311689518,-0.0316668469396299,0.1472288546469542,-0.1736396930188217,9.712502603150533,-0.0132545486724962,0.0186378193103602,-0.033691158275814
222,2220,-0.0271374846129877,-0.0096768804796774,-0.0182493328732755,-0.0209145700004646,-0.1846531161891725,-0.1231116471008584,9.83145956928404,-0.0089147173641289,0.0055006741927499,-0.01537058820216
223,2230,-0.019210875706199,-0.0190937537287358,-0.0183274825481628,-0.0235027219478547,-0.0556543844207743,-0.0699255679715096,9.648856776549636,-0.0260961574480319,0.0115963539087992,-0.0434554073193121
224,2240,-0.0178325668071358,-0.0218067746462692,-0.0099505916510773,0.002569986551091,0.0505483163513709,-0.1781938155387541,10.071496164254215,-0.0384000687217523,-0.0055289074075132,0.0326228882187997
225,2250,-0.0252945079938213,-0.0105108843034983,-0.0407436539570752,-0.0117268872715921,-0.0124830078376625,-0.0133208276277684,9.866874044857296,-0.0047284519577854,-0.0019264729732318,0.0110812728811231
226,2260,-0.0230307440378021,-0.0229437872624427,-0.0376059955542326,-0.0136740939593171,-0.1316298327533092,0.0677216830231845,9.67413975302214,-0.0510125493531332,-0.0013144079963671,-0.0125973266774892
227,2270,-0.0201519505213969,-0.03295688426026,-0.0214181272718124,-0.0230282510463544,0.0818336854551676,-0.1195510966342354,9.630767045057691,0.0057410264973726,0.0032099654219133,-0.0125296136675498
228,2280,-0.0005258844643691,-0.0104472682467836,-0.0209351999730852,-0.0315266177614046,-0.1175968029764498,0.0064680658288927,9.69962192292065,-0.0201498777032546,0.0098925547484399,-0.0578832148188174
229,2290,-0.0152899714541651,0.0083636635354452,-0.0039742472048002,-0.032804668018131,0.1746861126135924,-0.1309170861179956,10.12152811135022,0.0265565863098092,0.0163032601890776,-0.0022437197330238
230,2300,-0.0006774481958355,-0.0115906910051038,0.0088750133191897,-0.0234278765002807,-0.1401153007860958,-0.0409239282790114,9.648544812532386,0.0159413786328795,-0.0077181852557357,-0.0492202281116953
231,2310,-0.0139137735209421,-0.0022200446864885,-0.02870784178796,-0.0280827299708688,-0.0847934367461157,-0.081799533216927,9.717997991636064,-0.0097533640269525,0.0032416738229707,0.0040056173973251
232,2320,-0.006549058149935,-0.0200810701696617,-0.0145423292912517,-0.0208860304128678,0.0233925587910141,0.0184102925759408,9.869030828049302,-0.0309785095033964,0.0210830315441746,-0.0043288301862183
233,2330,-0.0030803861475213,-0.015199498990795,-0.0202911053850875,-0.0263298246570952,0.0183478825201312,-0.1425606409823575,9.543686299553832,-0.0033583532604957,-0.0015052904108819,0.0417882911705178
234,2340,-9.689823441781652e-05,-0.0076958678006203,-0.0230754622978254,-0.0023035099190614,0.1229446775771086,-0.0865199278244954,9.74091600084242,0.0005609982994738,0.0009538587439941,-0.0460881979245256
235,2350,-0.0076074683417628,-0.0022852042433535,-0.0070720772477271,0.0155056888492163,-0.0432727147327645,-0.0198619991308131,9.879648651813875,-0.0169565506691679,0.0152885944403682,0.0298693975508695
236,2360,-0.0036827148180529,-0.0071014277265639,-0.0058544410017808,0.0064755392425749,0.0431079825547119,-0.0169201490342435,9.756572823424428,-0.026210638311217,-0.0094742606820898,0.0424522182689042
237,2370,-0.0046495603973116,-0.0065103933444539,-0.0249567412493253,-0.0006183045168254,0.1725356812775773,-0.0473991594780868,10.234891480742668,0.0077281014931833,-0.0047094285179495,-0.0236366225937662
238,2380,0.0150591437934158,0.0080911785309133,0.0033772547636629,-0.0074039931743616,-0.0965469599660915,0.0397798384808923,9.63431516539067,-0.0263410073270472,0.0050867654275036,0.0244136387830967
239,2390,0.0162797246725976,0.0007196558558647,-0.0096530372961518,0.0168956006270185,0.1344633384917631,-0.0920266351547185,9.557892231271625,-0.0177462255247432,-0.0151800665498693,-0.0214260874181096
240,2400,0.0106413904646454,0.0090322326752606,0.0038670622046589,-0.0003045116694052,-0.0972546321257276,-0.0655019624693338,9.67872491817058,-0.0032109246055538,0.0081524418766131,-0.0226863646286081
241,2410,-0.0088908437086556,0.0151542406603623,0.023419483484534,0.0062587251164166,-0.099999842179519,0.0424628474614079,9.772954311488256,-0.0294757875662234,0.0111557638720054,0.0044684578464201
242,2420,0.0017447569281084,-0.0027225323804946,0.0051672259271522,0.0019135856448245,-0.0780936092045409,-0.1173699140125773,9.767202577929442,0.0015440542173588,-0.0129503986932861,-0.0267877979003817
243,2430,0.0222816801050778,0.0281326792860747,0.0023443948040905,0.0238267549803813,0.1436167167368219,0.0782147107170759,9.382051470034904,0.0352001475960541,-0.0135332600977628,-0.0225174906563937
244,2440,0.0277699003848942,0.0003478360230449,0.0250347025506844,0.0159367337488629,0.0566476586983352,-0.1991338820414407,9.690311155955428,0.0426090598287176,-0.0011733554869534,-0.0270690584341441
245,2450,-0.0036144644287085,0.0045458215984421,0.0275154277267811,0.014639487989737,0.0235208344133127,-0.0388231838875408,10.189402721935837,-0.0020314622611099,-0.0034485666825865,-0.0245929139810523
246,2460,0.0300045227210902,0.0030737227255643,0.0132324371850759,0.0215847145595052,0.0103863246871266,0.150254122706908,10.254431041849804,0.0250774821823343,-0.0133406887477418,0.047068364714913
247,2470,0.0330060896657624,0.0196907814196163,0.0225858446375362,0.0269365228174049,-0.0706387805225272,0.0860547087977051,10.292412765353829,0.0465953376212962,-0.0131108721683678,0.0012843959542126
248,2480,0.0047680141583606,0.0119449225722127,0.010720635958889,0.0146559926181803,0.0743642306778045,0.0952493540700072,10.069425456676084,-0.0209367594000066,0.0049555754704706,-0.0221423017198746
249,2490,-0.0001975947308735,-0.0050363844197425,0.029042890879908,-0.0061802304102326,-0.0233891318434066,-0.0709575974485118,10.09384523007227,0.0037627711988398,-0.0143640892935408,0.0610649294443009
250,2500,0.0135694540202098,0.0156632293951754,0.0184738987452482,-0.0040693007542319,-0.0010117200706659,0.0772724216232428,9.872124772945432,0.0180445177522525,0.0064404766306288,-0.0261802332488514
251,2510,0.0185694695586067,0.0323669558699008,0.0260929623197561,0.0298475654457361,-0.0776539248859648,-0.1155576444777233,10.08349435775005,0.033933151184254,-0.0311197326327135,-0.0236246220095652
252,2520,0.0346301168174121,0.0123531843425305,0.0142606309953495,0.0036028650684638,-0.0188366476710454,0.0667066708097129,9.656942984871067,0.0347635106991064,0.0054130764300362,0.0050687324657718
253,2530,0.0116917737410726,0.0023517838024451,0.0261582051691282,0.0171497083323913,0.1152093390185722,0.1826836006472621,9.83663238020234,-0.0223538203070546,-0.0007050286679769,0.0123796862056407
254,2540,0.0151016542246462,0.0162205494314736,0.0349979163345179,0.0140869574059321,0.0345966719793511,0.0421956286547747,9.968086989575252,-0.0142848986029423,-0.0060425848089041,0.0455322540068617
255,2550,0.0034099247209104,-0.0028351602529265,0.0209455933119915,0.0055845440643859,-0.1371386978544367,0.0558747537268033,10.05741777608602,-0.0012766882180951,0.0008116422264537,0.0518521601285553
256,2560,0.0386055175272021,-0.0026112711695049,0.030314373201148,0.0262996383517522,0.0327504459006247,0.1090927379609931,9.932960767475684,0.020283721489115,-0.0243985586537388,-0.0285366829023192
257,2570,0.0131816580047579,0.0066121327232815,0.0396423220199135,0.0220518912895728,-0.0019335114619415,0.3003644785589983,9.840312973251145,0.0209252657517589,0.0063058471463469,0.0253070909054861
258,2580,0.0134451989792377,0.0058933506168767,0.0394640383977941,0.0262060353433336,-0.0095178610507088,0.0379793146408168,9.927861596534408,0.0041127190270064,-0.0184583613728472,0.026426516625958
259,2590,0.0214422690323293,0.0439669744320951,0.0479935235276473,0.0308864454193347,-0.0332318643056321,0.1611122568625924,10.249016715624585,0.0253815313554648,-0.0106338966488094,0.0064532687301463
260,2600,0.0310866034054282,-0.0055414537987938,0.0201282987386001,0.0137078068172217,0.0721010475585657,-0.160082316406547,9.735185200264258,0.0213144842239719,-0.0071733408764618,0.0437093191732268
261,2610,0.0257590742147143,0.026073675211867,0.0158608263947869,0.0311315598132676,-0.1387237099123342,-0.0619090783927303,9.875263851664991,0.0472616953150995,-0.0069530311336012,0.016390838153321
262,2620,0.017548982775604,0.0218933122673134,0.0263251469584029,-0.0043437710873519,0.086338932714503,0.1901337847929593,10.052214531686182,0.0279431639843273,-0.016498280266667,-0.0001462348826612
263,2630,0.0253153205354994,0.0112946866465017,0.0024769615149292,0.0273962451809783,-0.1051217975565364,0.0833889202296484,10.215237773949676,0.0525137651554801,-0.0188093094686222,0.0016813898955425
264,2640,0.0182417898219867,0.0291804028418888,0.0258341324502517,0.0121408416828738,-0.0112362838429815,0.0088218040582006,9.985509729483873,0.0332942089352548,-0.0133652501171218,0.0317797913043612
265,2650,0.0157945176515167,0.0092682417336436,0.0276282690609515,0.0170507951764043,-0.034424605488978,0.1981595262992,9.945523173468208,0.052180607415912,-0.0240656415637982,0.027453434457777
266,2660,0.0087968525881313,0.023044562773891,0.0132453470033296,0.0028176259524031,-0.1594699061298529,0.0486487693381504,10.015597117379,0.0164798853666593,0.0015558896919689,-0.0024228132957311
267,2670,0.0064559641716299,0.0001278457258878,0.0079217896971484,0.0354111501893968,-0.1687189447997482,0.1556451869332796,10.13387292744144,0.0226941369526283,-0.0023344632672266,0.0010966534241844
268,2680,0.0205044955880377,0.0309600481177568,0.0287075789556354,0.0197318141243047,-0.1091584595458412,0.0583222432138236,10.017478013456358,0.0257280104909089,-0.01588767372989,0.0490529657233908
269,2690,-0.000389871890864,-0.0136937839990528,0.0022194644527869,0.0111315934339108,0.0407210768509033,0.2676667184710405,10.270714982761774,0.0644916636893179,-0.0186625941386205,0.0050148349962512
270,2700,0.0339206853625209,0.0085568523378079,0.0006311209480934,-0.0079844186285564,-0.102561125315096,0.1720710316458037,9.839007902531144,0.0094127064627441,-0.0161585459757576,0.0497421725517457
271,2710,0.0141452057485201,0.0007259924733974,0.0089867191804526,0.0081188210153301,-0.2151533426593607,0.1378840170080316,10.162573175024992,-0.0012376677726258,-0.0036918341014925,0.0576153400788296
272,2720,0.0254181003745922,0.008033613023624,0.0222687952110024,-0.0028859597009682,-0.2334603147017767,0.1225390331769716,9.837480679684546,0.0389320800521258,-0.0179799381890474,0.010441844829506
273,2730,0.0159946931086166,0.0032334000864826,0.0150689627255773,0.0149480617925971,-0.015810475361903,0.2248775889162331,10.125830206612155,-0.0076496414968139,-0.0153576981480088,0.0214503375303763
274,2740,0.029823714363498,0.0066077397546608,0.0127938469179989,-0.0011777918306734,-0.2000650870317729,0.1783170586658089,9.815562266850174,0.0765519963974955,-0.0260271851887352,-0.0043692094429101
275,2750,0.0032621074832352,0.0006777670286873,-0.0019497390039481,-0.0069287482368467,-0.2791335949937606,-0.0425864388304645,10.348044911415691,0.0379446506365547,0.0044377856882049,0.0235408125641943
276,2760,0.0057348542494395,-0.0046268679631591,0.0200764396619776,-0.0010281289073229,-0.1153557696862546,0.1080616421875794,9.793053158196772,0.0523542509828579,-0.0163936681347505,0.0263932817756373
277,2770,0.0120954717819373,0.0029262485790667,0.0027934464906082,-0.0120590932818496,-0.071046955181514,0.0067135198728234,10.22933454299109,0.014912259423566,-0.0398208846786188,-0.0040129174224693
278,2780,0.013568926675292,-0.006871095096648,0.0046927633600254,-0.0005623772217323,-0.2570266317902415,0.1051114705089763,10.182018630221572,0.0396619642333791,-0.0254780110213382,-0.0067106059786354
279,2790,0.0085436555242951,0.016872719989505,0.0249424176460906,0.0245447176143381,0.0270702348656846,0.1415168172903877,9.882578000046609,0.0498851212146521,-0.0258713012134409,0.0819048438071316
280,2800,0.0041285886083842,0.0027155366767391,-0.0039225323075538,-0.0094226632402365,-0.0256919989873669,0.268446706271063,10.152764933856544,0.0737913114956669,-0.0167096704396377,0.0010533967862072
281,2810,0.0199542755513724,-0.006783753259704,0.0111319647780682,0.009217519092615,-0.2068381899315818,-0.0458744422154024,10.411192364175571,0.0934562799537802,-0.0128700635336278,0.0641915825979208
282,2820,0.0147741942668677,0.0074041223261343,0.0256459497605888,-0.0086536328371268,-0.019645759550761,0.006588071107226,9.776470530111348,0.0566348410386403,0.0019110710281878,0.0877055299341859
283,2830,0.0235441496643609,0.0105193378926387,0.0192810697041801,-0.0043456772060581,0.0709977904177104,-0.0145886834656724,9.823387167996518,0.0136408480806993,-0.0153428256656572,0.0581460351326217
284,2840,-0.00044303135259,0.0102410569721847,0.0150217529843524,0.0122032688375171,-0.0161990980492892,0.0476156592368418,10.052214651385077,0.0645341927700076,-0.0037651826518704,0.0763356010564389
285,2850,0.0149692909212581,0.0170604297598653,0.0098429849316544,0.0213835433993566,-0.2215660929729832,0.2170462555761057,10.324968832122105,0.0865739277361619,-0.0027488305519296,0.0814597534229491
286,2860,0.030500051552982,0.0034758841830651,0.0264057185617769,0.0070171696638527,-0.1405810322165659,0.0430338538950099,9.938043947835276,0.0516629709678739,-0.0115913284355215,-0.0070088283716099
287,2870,0.0342933514562029,0.0240334005415504,0.0125726483652426,0.0342919650218259,-0.0121417909981763,0.0514798865553531,10.436128727099106,0.0691303169068903,-0.0227096639752946,0.0361211549316354
288,2880,0.0262268637932682,0.004185717816721,0.0204087965560628,0.0071273137611021,-0.1206805132745068,0.18479698554189,9.91242435386211,0.0352643957233048,-0.027095685610052,0.0837454910578478
289,2890,0.0410789689454086,0.0230145520800471,0.031614650210874,0.0231824574713136,-0.2528302795812415,-0.0345140185372055,9.754855829802688,0.0804807720072738,-0.0403017802812861,0.0334681869136081
290,2900,0.0221052074333755,0.0152986473614769,0.035797026530827,0.0029864257433305,-0.1063371566860142,0.1262186285517165,10.400949085983504,0.0753770759511428,-0.0274397362719467,0.027331093988902
291,2910,0.0222058820339235,0.0153923807051687,0.0270878726952659,0.0137743456466712,-0.0125730088660216,0.3069282329017923,10.12331577619658,0.0720370498262913,-0.0229838389304449,0.0883599554461195
292,2920,0.0437099707048518,0.0237341639795203,0.0046399288024838,0.005208019875367,-0.3086481274987673,-0.0487758353460834,9.915562850484598,0.076853795460422,-0.0201956042259652,0.0776295324360288
293,2930,0.0507051935510673,0.0400853784864698,0.0434051546578725,0.040744311976061,-0.3424245355886652,0.045723434026711,10.399181641949983,0.0352149190865973,-0.0118166167517567,0.0375071495528307
294,2940,0.0314155862962608,0.0017375710285184,0.0230853241275477,0.0127564517687042,-0.2104408130429791,0.136533073437271,10.15592590166611,0.0223914130287971,-0.0113568439204593,0.0474781896639612
295,2950,0.0389031055890012,0.0190492718701306,0.0219257392108885,0.0282548863033299,-0.2767675342408918,0.0523315030710482,10.149240359742974,0.0830899944733125,-0.0221339881003702,0.0455002748363905
296,2960,0.0370799552275904,0.0057300347977706,0.0495083130648992,0.0158193253684582,-0.2183056824125396,0.1736827539837944,10.152146077178648,0.076307165663538,-0.0262788546895806,0.0908439438988779
297,2970,0.0474347643229399,0.0292136909419018,0.0384601051029577,0.0204938755823756,-0.2023452438476857,0.1195191839761279,10.567562297661382,0.0618524129270121,-0.0196934592016336,0.0392192791413953
298,2980,0.0213939228172772,0.0129363487649681,0.0261383899510086,0.0240422457861889,-0.2542424395298207,0.2337235317463223,10.1222733816264,0.0802477017193955,-0.0300850189343877,0.1115411070314339
299,2990,0.0364144832962647,0.000848700286725,0.0412877971700508,0.0204896123591751,-0.31016637405815,0.0652508790293921,10.118622415122903,0.0813188727673824,-0.0136210816716838,0.0622590310423567
300,3000,0.0356520882044171,0.0170864040826917,0.0342326587818259,0.0168667136439519,-0.2430490875451277,0.2892758067775164,10.45063619730555,0.0466715837354268,-0.0201587321574474,0.1246238686582328
301,3010,0.0404959395921539,0.0321285184192418,0.0364049432886132,0.020310102129376,-0.0063640393551104,0.1924700678659127,10.281598442338838,0.0880731590849191,-0.034155699750199,-0.0082628250440911
302,3020,0.0408742555102791,0.0019101380191158,0.0324188495774643,0.0263122806858203,-0.112538843635111,0.358470371281403,10.18071815251746,0.0787683075194032,-0.0139380156415551,0.0716185694264214
303,3030,0.0373282740855715,0.0046325927172549,0.0450375652194283,0.0315367404344439,-0.2416015609444785,0.2821124251747705,10.374285494358013,0.0808485157946483,-0.0327067123350316,0.049177972105503
304,3040,0.0318708177904836,0.0154738756415808,0.0397457031642196,0.0183753974883308,-0.169256087407593,0.1553078744972404,9.88422678404901,0.0720008190541228,-0.03603629951879,0.0742618592027789
305,3050,0.044334729569578,0.0191627534041797,0.0146335041645583,0.0201667816854769,-0.2015091260620426,0.1612198171583642,10.195656614329843,0.0628231352391472,-0.028741455772128,0.0807435455100711
306,3060,0.0266809479782396,0.0174782871916987,0.0492703490823845,0.0248424274216192,-0.253528125401946,0.2751475282959867,10.173528022562568,0.0307154800846068,-0.018630596506284,0.0723939904259665
307,3070,0.0439347911656363,0.0101740730125437,0.038835150055915,0.0146387553054386,-0.2148252239447322,0.4162046313357395,10.384292520224928,0.0695436832496515,-0.0340134916974481,0.0907708794027427
308,3080,0.0452933354457827,0.024611729418912,0.0336812641636536,0.0291692226154146,0.0074574708382511,0.2398025393652947,10.33227355417674,0.0928745429092164,-0.0347357273820509,0.0595184972925065
309,3090,0.0296340026252904,-0.0021885566523382,0.0385059395873615,-0.0123440873054107,-0.2477629665519822,0.1917476382166986,10.104190492703266,0.0466586119708664,-0.0479767832801199,0.0424754314559453
310,3100,0.0488585032340767,0.0053404949354414,0.0287731997356253,0.0293099735112096,-0.3920192565434498,0.0948656135857677,10.288009060953184,0.0982586458406665,-0.0257221889874702,0.0779024366136111
311,3110,0.0298789264471418,-0.0054007806072044,0.0150274815522936,-0.0060075830206054,-0.1598994796842776,0.0181925119757498,10.357323487552176,0.0775092700449569,-0.0283372540873724,0.0483950730493138
312,3120,0.0333582875296353,0.0022128093350193,0.0449001899358883,0.0173850570857438,-0.3029780732978103,0.029323100901838,9.892496389129638,0.0814221804351581,-0.0309155297997811,0.0661318208688829
313,3130,0.0240030759342044,-0.0110741600659668,0.0190229903384933,0.0033970916583628,-0.1639492344374622,0.1610463278638155,10.37839886951551,0.097897768305511,-0.0407644589315528,0.0432546912807279
314,3140,0.0330703777865033,0.0017419804654716,0.0075787294103307,0.0035260537485657,-0.1423891616349538,0.3180722226446494,10.370330146978231,0.1212435823035782,-0.015722312278068,0.0615428395219058
315,3150,0.0225507769897858,0.0024136501807372,0.0382684692266907,0.0104606394991754,-0.1656088420239946,0.2041856590387222,9.954020819393124,0.0773950053778109,-0.0376152335415966,0.0549011382090351
316,3160,0.0145512452270893,0.02568407713892,0.0101764484713252,-0.0131729183851103,-0.202911929937047,0.1881448011425293,10.337700877999694,0.0897731152253448,-0.0324908894639628,0.0692193099044818
317,3170,0.0285990226195011,-0.0078087353145561,0.033721323712358,-0.0126942814012943,-0.220978322962315,0.188906921440449,10.254950568148956,0.1032130944999929,-0.0402495013579464,0.0468804616482871
318,3180,0.0173815311967283,-0.0060750928219977,0.0204631650400557,0.0075169947308951,-0.1780058987130628,0.2122913259706147,10.0225048055976,0.0827782386803104,-0.0410744502696314,0.0995124326160328
319,3190,0.0315483429184584,-0.0090153383919422,0.0200101228684303,-0.0048295634012218,-0.147542499675906,0.2975094543557585,10.358310288175511,0.054046090730974,-0.0341687777745556,0.0704411497457023
320,3200,0.0243821192214331,-0.0012569866654867,0.0149424140432734,-0.0016188634098874,-0.2019218224968322,0.279554203369326,10.372657550290365,0.1112050011189899,-0.0282545580883118,0.0854872288216787
321,3210,0.0168473233211398,-0.0187235443463076,0.0205208343403222,-0.0205625392926269,-0.2696257443804994,0.2507283509655812,10.044557659817045,0.0678425427768872,-0.0492428943160136,0.0632981014391241
322,3220,0.0143206931266473,-0.0211285343215214,0.0118213743194516,-0.0082191738243624,-0.1771064141624113,0.1699088865544634,10.16287876945859,0.0932053231830717,-0.0152147542817593,0.0927399162962455
323,3230,0.0137406184448534,-0.0073408125551502,-0.005790188024858,-0.0161620819814564,-0.1516648837113403,0.2937659976023259,10.349486042959946,0.0844092733021165,-0.0598595987351835,0.0826690967401124
324,3240,0.0046703504957187,-0.0066496633903117,0.003433058607355,-0.0135062212113959,-0.2107024406869469,0.4650427181013347,9.713473053308771,0.092851882672573,-0.0153163183188905,0.1297092204486526
325,3250,0.0033896210724933,-0.010772839510391,-0.0032461644660564,-0.0387082002555643,-0.2276999747479107,0.1678080588705485,10.033437253840846,0.0846942638888653,-0.0419235543889325,0.0712582654489893
326,3260,0.0086820692604955,-0.0156487490723108,0.0115944194373864,-0.0064533679096254,-0.0435244715915247,0.1287581885026399,10.148673528157776,0.0718910033954073,-0.0444669239390407,0.07507401137765
327,3270,0.024850821480454,-0.0072494392283685,0.0095658125068566,-0.0150341713759367,-0.1466203096262544,0.3586298717121762,10.371934059563433,0.0774757678907515,-0.0212087512300182,0.0583854678999731
328,3280,-0.0022391643478644,-0.0273882575746825,0.0192585148666988,-0.0216682801097907,-0.1948125592009532,0.1297342206183322,10.284560977154662,0.0717459606583002,-0.0464406098555904,0.1042404916780659
329,3290,0.0048757694700599,-0.0294704811772115,0.0084683162393507,-0.0207438907643494,-0.3645090203684574,0.2484082443824767,9.694795910290615,0.0740434016712534,-0.0369235905455,0.032119617145114
330,3300,0.0108060131368547,-0.018617849218173,-0.008152397103942,-0.0298740244904367,-0.0670094500868461,0.3356127390825979,9.920894551398511,0.1209058233457341,-0.0341461033201182,0.1098086877243395
331,3310,0.0075192885872044,-0.0115496706030272,0.0198599956622451,-0.0085379041990119,-0.2649096884624893,0.3152864390398928,10.019076700143843,0.1003230266332913,-0.0341683033192175,0.1066146081924059
332,3320,0.0017074777233474,-0.0393579896133298,0.0065021626081185,-0.0134836159003726,-0.2129553004261952,0.2168627581467943,9.963193592486776,0.1508311678851815,-0.0443782943337968,0.0286867442146456
333,3330,0.0117176973707547,-0.0156139885872494,0.0180905988533645,-0.021259969075577,-0.1535832460721997,0.2861083465008023,10.187311581770404,0.0866716012364438,-0.0301527366183965,0.0571276674460371
334,3340,-0.0074663187833771,-0.0425611866945819,0.0112131137912104,-0.0203277023010572,-0.2921598453702798,0.2690210184781348,10.195909338982116,0.0664069410293886,-0.0345324933026802,0.0437152560499804
335,3350,0.0078598683170679,-0.0210803118329735,0.0106427009812562,-0.0043891944646559,-0.2796202109957296,0.4889101934597886,10.417130571720094,0.098031825185074,-0.0557374571267612,0.0627629972833417
336,3360,0.0193051429723227,-0.0198897587080755,0.004371651623759,-0.0097416553979993,-0.2546979269468828,0.34366358565634,10.5927409322001,0.1220805988848221,-0.0314311942805481,0.1052125049171585
337,3370,0.024832226473601,-0.0357943767919445,0.0163446097361306,-0.0124015813487259,-0.2119256883882949,0.3234500512504176,10.20590861715254,0.1052523953712654,-0.0432784514277823,0.0941114548504013
338,3380,0.0104212537477393,-0.0363434898160535,0.0171676806703422,-0.011514381346082,-0.1406307879171926,0.3263804769867073,10.249830821713305,0.110339170060884,-0.0344911708920299,0.0622990990421053
339,3390,0.0099575915033718,-0.0237088450780376,0.0190306339661652,-0.0265710917686131,-0.2575216461164546,0.2880308234887669,10.526292706561271,0.0783397817716312,-0.04065128293274,0.1123070715687505
340,3400,0.0201417530667917,-0.0160931359548574,-0.0027267745500941,-0.0003399406162983,-0.4208081167821081,0.3532868197771631,10.478882147531936,0.0889704392403954,-0.0421616772610225,0.0975556881426453
341,3410,0.0295928489868371,-0.02797514335595,0.0163569755805041,-0.018272896019502,-0.2254840949270934,0.4251039625925091,10.122464332504368,0.0860148797269325,-0.0367730969506205,0.1241412822250074
342,3420,0.0162940137142039,-0.0105253603659286,0.0037802832826579,-0.0153327235144505,-0.4029449781133226,0.3456736141315453,10.656508959868818,0.1204380310708422,-0.0601521837181987,0.0993834938430746
343,3430,0.0198356008550769,-0.0299211229877919,-0.0037023223997107,-0.0433177767413841,-0.330931630161598,0.3647495106480424,10.343810592969248,0.0813419615004785,-0.0388215463231548,0.100656259381728
344,3440,0.0219569582429885,-0.0113623618518841,0.0165277199905225,-0.0257935663393435,-0.2679530160487548,0.5139070952590085,10.132261265894146,0.0884141336889846,-0.0415480128821371,0.069557374955035
345,3450,0.0193240561426129,-0.0105364064787924,0.0165141863258636,-0.0140420827775664,-0.1722914625902923,0.2578311736661203,10.567979880800795,0.0683448120676233,-0.0452079333625812,0.1088428642977858
346,3460,0.0287656399744777,-0.0222422501115134,0.0201433554138349,-0.0039832603985013,-0.3017711905313519,0.3648764710707902,10.47526211695806,0.0903232604072721,-0.0477542822784152,0.0435079850538849
347,3470,0.032872232030881,-0.0223123993220868,0.0280601823977023,-0.0022296432879511,-0.2740297267372633,0.2415182956708303,10.346319057959008,0.1116798345582537,-0.0525320429459663,0.063359070867262
348,3480,0.0194025268286241,-0.0366066004082174,0.0169126171833891,-0.0175288592463159,-0.3730777717890908,0.222562339479629,10.05019994331096,0.1081187884124251,-0.0402023189697785,0.0867494098354808
349,3490,0.0505420772303426,-0.0208498083007847,0.0432486477510457,-0.0134367853182754,-0.2143797051054989,0.4055477837102586,10.25421276501728,0.0821348076570277,-0.0342896637019121,0.0840953876742784
350,3500,0.0464609267282191,-0.0142255564442772,0.0229639950685366,-0.0090683357280694,-0.1762471730545539,0.0680823492715959,10.40665984479111,0.0683414023226512,-0.0417064545172443,0.0834004076259916
351,3510,0.025113282917552,-0.0005318884130433,0.0246014988252367,-0.0234569331206076,-0.2854129303706578,0.1422543665332085,10.0665230267042,0.067728854764121,-0.0475971683418226,0.1135692182525728
352,3520,0.0321509947624659,-0.0118400350568465,0.024618359221899,-0.0153215855822538,-0.3869062406906695,0.4823785597923671,10.211600576568127,0.097218520224777,-0.0408752641222559,0.0551636631335056
353,3530,0.0149503571016082,-0.0148316353112431,0.0264990162074341,-0.0129497835900391,-0.3646644971780592,0.1962404384418301,10.326615092392368,0.0758330532302033,-0.0371030250752239,0.1394020552790877
354,3540,0.0056075963063027,-0.0272622812720676,0.0103167954689712,-0.01836000690528,-0.1983413365318648,0.2137513417393562,10.165981424527397,0.0970990346352024,-0.0652411802122603,0.085186251035147
355,3550,0.0207708320443133,-0.0301936130927893,0.0248970025266343,-0.0228089203546402,-0.1717632397973976,0.2843677929165472,10.345239876334546,0.0821147329788714,-0.0572316157283702,0.0964263438098631
356,3560,0.01879302360163,-0.0183954971826074,0.0370051758057679,-0.0103341747089319,-0.2795658783918902,0.3087093521593195,10.297059165257751,0.0871096095112882,-0.051998143619649,0.1061264761463415
357,3570,0.0348538506658554,-0.0003531762080611,0.0098007044349383,-0.0171837910479335,-0.2638220694057128,0.5013792288544998,10.426805966064784,0.0982595104214065,-0.0354407030685543,0.0806503564119483
358,3580,0.0191838948520743,-0.0145117073215225,0.0217023126923547,-0.0183881076240816,-0.3401859208741294,0.1360779358873829,10.32648889704858,0.111385731170783,-0.0502508891395116,0.1111972934033612
359,3590,0.001131014344202,-0.0307158400639474,-0.0021459679000472,-0.0130504586989106,-0.029838478751097,0.4186446981089521,10.26386706660926,0.096922322588283,-0.0259194936017474,0.0467892891836019
360,3600,0.0096233595463169,-0.020710861980939,0.0349345324065038,-0.0365544554029518,-0.1477202627575883,0.3673273583520509,10.4309321857691,0.0785211494456277,-0.0501714690721705,0.1226296708807636
361,3610,0.0268022053106359,-0.0266803289788831,9.674499267666586e-05,0.00477672797699,-0.4788245350886101,0.4071218284309753,10.338555845786352,0.1092015163291893,-0.0428969637904552,0.0874531746090541
362,3620,0.0248237177237394,-0.0261561760436032,-0.0020389923689247,-0.0285032085238955,-0.2404651179983322,0.3868874268356083,10.35285292216195,0.0953711671768816,-0.0499414447134765,0.1157968983778963
363,3630,0.008794986640441,-0.0260480192305305,0.0176083095632455,-0.0370110442270311,-0.2560880212373972,0.3324799029814685,10.548465349507552,0.1013137260644414,-0.0380889246173358,0.1380866359419454
364,3640,0.0106738043812993,-0.0213255700666762,-0.0035730028743482,-0.0220218818455196,-0.1336643408655977,0.2593702743933362,10.701083450364605,0.0964494557759145,-0.0512413344676318,0.0853281288426712
365,3650,0.0052572349998866,-0.0609429409946049,0.0115817283750355,-0.0407615712982056,-0.1738727921118451,0.2870019446103368,10.255037623481876,0.0582882283672544,-0.0452955206461294,0.0994469127733778
366,3660,0.0012450168732868,-0.0426027438748513,0.002312934210173,-0.0512192662189212,-0.2668096699178997,0.2327152967438664,10.339397272627709,0.1102018874116575,-0.0482783341316374,0.1519850158511699
367,3670,0.0044538407485384,-0.0374758004553817,0.0045620239143747,-0.0397484992688122,-0.2995607554336247,0.1856834597722628,10.445663069030642,0.0907508386944648,-0.0350854866766488,0.1214026519692625
368,3680,0.0082270819540739,-0.0315032476587647,-0.0076344211796287,-0.044560489970911,-0.37214846119301,0.2765546372033365,10.378736120140324,0.060004881283083,-0.0290785122235392,0.1152115868836662
369,3690,0.0080175275504824,-0.0350511635880132,0.0008739934179042,-0.0237412940686369,-0.2539453066404049,0.4307768346437788,9.906310945167236,0.1052051458326552,-0.0607549562639,0.1522416438333921
370,3700,0.003729882548039,-0.0655146771526127,0.0072360846702044,-0.0439082534060681,-0.5019875860729907,0.3776957964799763,10.099517927013077,0.091923786794507,-0.0573256060554893,0.135636278618376
371,3710,0.0072494469757783,-0.0294986697744285,0.005726117747711,-0.0335659521184853,-0.2413029247709918,0.580063658381252,10.52287924016558,0.1335748410216883,-0.0437413021298803,0.0654117287711454
372,3720,0.0088861504479864,-0.0550876912224158,-0.002644512357935,-0.0441948344485159,-0.3544154071061219,0.1916862801825333,10.228194024470046,0.0953769302818412,-0.0513235680393197,0.0848484702906406
373,3730,-0.0027201287678933,-0.0331164113219304,0.0095576420996832,-0.0277846608199567,-0.3346834600862627,0.4236808463013916,10.202779359120042,0.0980563459620932,-0.0373684449627411,0.0886268155791565
374,3740,-0.0141044345626025,-0.0441953715942645,-0.0149865769625621,-0.0349202325554015,-0.1073881455812036,0.5849757144399677,10.20846382682648,0.1072598122704266,-0.046557560825374,0.1204709345579307
375,3750,-0.0111481747143184,-0.0364575297232269,0.0028459742016081,-0.0567630466166088,-0.4114550603036879,0.1560703022729756,10.395362255722,0.1344703244855889,-0.0413983019589281,0.1278747727979385
376,3760,-0.0095104885759753,-0.0490561775780007,-0.0048406671918145,-0.051166562563509,-0.3934155537356332,0.4416337170591548,10.384263840258765,0.087698398200832,-0.064179151079961,0.076762423141252
377,3770,-0.010931274531482,-0.0421016512412448,-0.0180123523716881,-0.0534379910073015,-0.4083148763153114,0.422594753628734,10.201227901133144,0.0729953008329255,-0.0359824204243069,0.1324431424259975
378,3780,-0.0075164350310552,-0.0475126597696398,-0.0034354024182444,-0.0509198745593152,-0.2390172352412932,0.5377892136218413,10.190161853643566,0.1189344487871069,-0.0376983700590686,0.109696033806835
379,3790,0.0153962763564019,-0.0495072651247259,-0.0065192183916154,-0.0369247888930117,-0.4086713125665894,0.2749713504532425,10.409705109145053,0.1051997718908932,-0.0607235205517974,0.0655652412057377
380,3800,-0.0215753136870848,-0.05999854315602,0.0043894754754369,-0.0470513988388723,-0.2262093017069769,0.3606714057863558,10.164278041607709,0.1020961281453468,-0.0505859957935112,0.1092171157586742
381,3810,-0.0145402099380282,-0.0538069542982291,-0.009036482324634,-0.0408583319194927,-0.3270404004326876,0.4070210953222279,10.054190479665143,0.1042096512219237,-0.0571962042775974,0.1774297033114261
382,3820,-0.0096697629624027,-0.0637675018300803,-0.0134875053525645,-0.0669517202465623,-0.3460715703828532,0.2603926730315356,10.200632126949102,0.0953030913655548,-0.028874068020953,0.1086551595744768
383,3830,-0.0006144785877719,-0.0551496892656749,-0.0083126097242204,-0.0387683570428554,-0.1592297079795821,0.4781139991806504,10.209215180986684,0.0928277931483502,-0.0371263857180354,0.0954380536894875
384,3840,-0.0185463057073415,-0.0593514716598561,-0.0180653282662984,-0.0534856379334971,-0.4328813727277435,0.4409096663729251,10.136396627499868,0.0888706847624405,-0.0528598189669074,0.1003789022702671
385,3850,-0.0130905021802134,-0.0424916631646467,-0.0263403961003965,-0.0388199365223946,-0.3517298747810788,0.2925732206516978,10.49370713394232,0.0979934423328864,-0.0406097304766244,0.1429845906283793
386,3860,0.0111390219301652,-0.0691823312466661,-0.0005919967049756,-0.0367828704217113,-0.3277586731947331,0.4318395586076607,10.369067864188414,0.096330930059381,-0.0485940013382695,0.1331076001853847
387,3870,-0.0070232633659301,-0.0397481147789559,0.0067624245926553,-0.0387867473921537,-0.3489008373164608,0.3519389425252751,10.268076485085974,0.0984589091964691,-0.0626866824005907,0.0968553282353918
388,3880,0.015779712066265,-0.0304147765211751,0.0057261599659561,-0.0264471576700824,-0.3642628323362644,0.427477988674301,10.347174633875571,0.0839340809542193,-0.0570682071825654,0.0511379495715364
389,3890,-0.0009976993288973,-0.0480920286756701,0.0150740770760097,-0.0192762909715814,-0.4695287624362618,0.3453637649610589,10.307368753485544,0.0791597629115512,-0.0375224009985369,0.0950327538514119
390,3900,-0.0040723558645395,-0.0424373489399383,0.0182035207732101,-0.0140447131254198,-0.3818492355099872,0.4292745896459708,10.368940089656482,0.0768517520192273,-0.0447829559073819,0.1884129326791513
391,3910,0.0207764903278091,-0.0517812071061901,0.0075683850284891,-0.0351662024550475,-0.5060470557374337,0.2690880850291263,10.024591012207294,0.0799387101309792,-0.054034183516953,0.09041923930561
392,3920,0.0133255641269185,-0.0351265174350117,-0.0027385634278688,-0.0370939488057972,-0.2925443256250534,0.3521737676321875,10.456357640367472,0.1472165123559184,-0.057920839132512,0.1279847939790983
393,3930,0.0022231258029058,-0.0430054483399598,-0.0219864747698624,-0.0400344080824775,-0.4363830914071401,0.3113444911004223,10.382641872916013,0.1121119546840385,-0.0540715197418272,0.0885323032325051
394,3940,0.0121336086923298,-0.0648168277992225,-0.0149436595166434,-0.0296199339015123,-0.2698241439951689,0.3751521435719538,10.336160326057186,0.106362324630868,-0.0480668657136866,0.1414992606921359
395,3950,0.0246746754564647,-0.0573553174303808,0.0205692949810913,-0.0367203951791812,-0.3600396223534278,0.3419545948326117,10.347401069412246,0.0757543928082321,-0.0523494519332802,0.1887610373952385
396,3960,0.0117556070470385,-0.0344109285963093,-0.0141981394918177,-0.0308017024631482,-0.1247163408442827,0.4543506300772701,10.753871390692764,0.1202600891504191,-0.0526459731071441,0.1547556197053498
397,3970,0.0082807482545113,-0.0336875126402832,0.0109465432073051,-0.0310519857057354,-0.2779919625227658,0.2897141519322067,10.282387792305585,0.0750986240303104,-0.0575690227684195,0.1370934991388296
398,3980,0.0139233279510842,-0.0307929156963442,-0.0086434845669517,-0.0243484139777969,-0.3924123544932613,0.315630366578847,10.380165276856824,0.1163444579525895,-0.0476196386417717,0.11019117099846
399,3990,0.0046707695589275,-0.0378465717347044,0.0063427308288396,-0.0465465407105937,-0.1901947369646869,0.4919111642638232,10.027931566313256,0.1088469449133409,-0.0344121134751504,0.1370323932776924
400,4000,0.003950691871314,-0.0264073416666318,0.0123201159972145,-0.0048557544379508,-0.2928943853850094,0.5901933253918623,10.13586401179204,0.0602092255062674,-0.0538348395362518,0.0998671779111833
401,4010,0.0269069777058854,-0.0355965493491529,0.0206743451078327,-0.0267894393269357,-0.4081957028506042,0.4334022339515574,10.52202093858633,0.0780803441415573,-0.0636875186276382,0.162717186863495
402,4020,0.008479135148201,-0.0406508156795603,0.0148530225778118,-0.0433938280505003,-0.2908178696818265,0.4484200958135749,10.337260262462522,0.072581368414284,-0.0394191212217059,0.1835137049006221
403,4030,0.0393941038538173,-0.0302183695828445,0.0059247372890491,-0.0146210165238917,-0.3968555936466175,0.3482084280498109,10.056546483267256,0.1060120476723746,-0.0444301163899548,0.153826466923265
404,4040,0.0110745143396311,-0.0209742788486499,0.0050048258323234,-0.0351893382350886,-0.4143819235397387,0.6619060343573973,10.500400748644894,0.0905976932680657,-0.0304133367075762,0.0968158362145782
405,4050,0.0076466035525638,-0.0500696732433165,0.0221582934600368,-0.0566465972090262,-0.1667314100428429,0.4925406650852634,10.188611618842277,0.0958117632135781,-0.0433026348022393,0.1507139843325844
406,4060,0.0298826980068973,-0.0516559954883273,0.0094976929008234,-0.0199337316727739,-0.374846294031721,0.408093919528367,10.082862242986073,0.0808184811847249,-0.0458540352053307,0.1443572946513132
407,4070,0.0094397702943468,-0.0466666145751577,0.0084766806079671,-0.0220968130580917,-0.1554659308100006,0.179023819556877,10.122092486194456,0.0739596743473962,-0.045229641814078,0.1467688528255777
408,4080,0.0042220698490893,-0.037876552991558,-0.0151421655074013,-0.0471006753776706,-0.4289406056855854,0.4722709307239091,10.25312998855035,0.085807633093523,-0.0516870869634378,0.0901474868964266
409,4090,0.0367097070487793,-0.0262724909521402,0.0201035127159283,-0.0287631856849713,-0.3244827262008747,0.4431293393185885,10.088771877818289,0.0954944659057392,-0.067494255088816,0.1692854138167205
410,4100,0.0132738462725977,-0.0250084659096656,-0.0119099634455918,-0.0203060325287447,-0.3442155347663382,0.4598243746986682,10.355619059950856,0.1082671470981079,-0.0399420124864559,0.1975425877854313
411,4110,0.0125462710404999,-0.0463925391253855,0.0095997523863751,-0.0223059392340138,-0.5275346077232599,0.5339817975162614,10.126545929685182,0.0919715683498151,-0.0600541736810508,0.1271569909906764
412,4120,0.0191595012335992,-0.0316180979502037,0.0035623119680438,-0.0260779305702768,-0.2863044046583367,0.4870266552325391,10.517506889752685,0.0582625061664551,-0.026474775478745,0.0889105578807942
413,4130,0.0215887669596102,-0.046576376976049,0.0121504646648171,-0.0476700136287109,-0.1295528383783162,0.4230761727008643,10.33879771768337,0.1109462700652076,-0.0396187040842032,0.1396328000542989
414,4140,0.0162915246353435,-0.0388965741903593,-0.0170874268723229,-0.0345109586714073,-0.3571435806744255,0.5900935518394578,10.318965260478333,0.0602996858763014,-0.0578176511717859,0.1662107500236317
415,4150,0.0086529750131622,-0.0483508968962178,0.018699688233791,-0.0555731160134622,-0.2471809406831617,0.4159908187680472,10.438931379091306,0.103316018649449,-0.0440040024215165,0.1285043327025348
416,4160,-0.0078833279736454,-0.0494611720545763,0.0062871062817217,-0.0381566871323137,-0.2090872659251406,0.5559575044981433,9.936264649418742,0.0799084367260587,-0.054674720022112,0.1695280678781463
417,4170,0.0190880218460984,-0.0333651066558829,0.0225530776565056,-0.0584857403652189,-0.2881642205964129,0.5783665603132293,10.309425385980235,0.1099654766641335,-0.0598807720591489,0.1134093674012455
418,4180,0.0134543183990805,-0.0297685915957988,-0.0018827068319077,-0.0366464151810571,-0.3869454922345265,0.4928169698781576,10.396449118136012,0.0469501958289787,-0.0500062906654858,0.1587604238836733
419,4190,0.010033134977268,-0.0390100734479072,-0.0025914719278766,-0.0490162559192876,-0.3499228644058376,0.5402472725066911,10.24348340977032,0.0552666629617784,-0.0366244620824131,0.1405170627552172
420,4200,0.0144098024191377,-0.0306667964745156,0.0141201133275128,-0.0432943080456975,-0.4129745531528418,0.3958089057203455,10.164885972097762,0.0441308745042433,-0.049097669917695,0.1416162327790711
421,4210,0.0014413782801634,-0.0283022361258902,0.0075821687945858,-0.0175765400336985,-0.363077029847337,0.4929712345094343,10.245396435373264,0.0788909300237319,-0.0531350528079315,0.1397807173153687
422,4220,0.016662274185413,-0.0328126636285947,-0.0138253982331818,-0.0499458777422396,-0.4196158479432239,0.4094046438138873,10.172721802200382,0.0652731319139893,-0.0519750680434989,0.1005073681103419
423,4230,0.0362724724106048,-0.0330176834157987,0.0119297009618978,-0.0357035780838337,-0.3593036588252274,0.5499406998702638,10.125275695969508,0.0705846250757182,-0.0566741094555068,0.0719735385514615
424,4240,0.0228484537622758,-0.0331231610524217,-0.0039654498787203,-0.0489932431288986,-0.2057561444297026,0.3092931051913365,10.171250123543317,0.0485286642327919,-0.0512847087063411,0.1120770665825585
425,4250,-0.0018492831322222,-0.0487148869853797,-0.0202397837888279,-0.0216698942608592,-0.4754468903137584,0.3352784832108617,10.480697269903892,0.0972583484886004,-0.0577151258399648,0.1729509655618945
426,4260,0.0011018775084342,-0.0504924107409788,0.0176983454755725,-0.0500663055129181,-0.3388070366945651,0.610568561313738,10.218334030725966,0.0997906565891099,-0.0468858865597043,0.1424993625794688
427,4270,0.0018075832650191,-0.0604253752265564,-0.0122219504240414,-0.0440603207293625,-0.49529383451956,0.3873677355182155,9.786046682486049,0.0856265602876351,-0.0440552789375741,0.1879630147237216
428,4280,0.0096312578447984,-0.0546880580896845,0.0132862680819742,-0.0339387433186512,-0.1872023161621254,0.2713451410822365,10.120894020994385,0.0902670831953499,-0.058735354057812,0.1710746418002018
429,4290,0.0077315681600951,-0.0203577809286369,0.0010256087803376,-0.0304579329230373,-0.2483680833860072,0.4585019381751903,10.214230787519048,0.0477599155461318,-0.0599457828032613,0.1267839402028671
430,4300,0.0221923441297984,-0.0444532490875248,0.0236076665436882,-0.0279151785767581,-0.2500805099016538,0.4793146633509303,10.026771551929428,0.0550801187636944,-0.0427345794397516,0.1274444310504385
431,4310,0.0456481279464263,-0.0423698293689047,0.0309071014625785,-0.0283963730005867,-0.3152817882839945,0.4122520914381231,10.002610731593611,0.0488665292911116,-0.0438981661694509,0.1110581948720349
432,4320,0.0443775191888375,-0.0122997317643313,0.0303335230899828,-0.0153705307273676,-0.2230922909216345,0.49674935278643,10.07962386270508,0.0765317395413546,-0.0684378962804461,0.1146979044167788
433,4330,0.0194960968725988,-0.0650790502616785,0.0127253706849175,-0.0422196411713643,-0.3129728487112829,0.4510368986665393,9.987625133806628,0.0481297042523878,-0.0567145200251697,0.1216655649884021
434,4340,0.0062008584762232,-0.048335021723483,0.0066037433143364,-0.0309607707224432,-0.4032396619885849,0.4480219080267417,9.6570346252685,0.0434779321799728,-0.0536955728520493,0.1522771939479104
435,4350,0.0345256325231478,-0.0607629409471979,-0.0101548567902573,-0.0307416355325135,-0.3289698207253703,0.6111729634835021,10.062407745821067,0.071630037458362,-0.0535191966554124,0.1361354639040516
436,4360,0.0375918350753553,-0.0280418123002797,0.015174908830079,-0.0015284612789924,-0.2992559589528575,0.6479917766404992,10.217438935086486,0.0619840051926463,-0.0430199299441669,0.059102036608034
437,4370,0.0464323446064724,-0.0253219836762427,0.0223959262765487,-0.0007533828110876,-0.2551291145265557,0.5082063796696573,10.382961017196967,0.0894695380670286,-0.0231103541932608,0.1759704510444325
438,4380,0.0497533698229935,-0.0210526834459926,0.0458727073754858,-0.0018023793410804,-0.388766924569693,0.2575240486229668,9.81963686631119,0.0584145649836832,-0.0382366629513051,0.1437021992468428
439,4390,0.019536731808944,-0.0409361466760621,0.045677319031629,-0.0222348669073312,-0.3029280471982136,0.4502456936597067,10.22358155422422,0.071996077789996,-0.0510137775683701,0.1474828193938976
440,4400,0.019536731808944,-0.0409361466760621,0.045677319031629,-0.0222348669073312,-0.3029280471982136,0.4502456936597067,10.22358155422422,0.071996077789996,-0.0510137775683701,0.1474828193938976
441,4410,0.019456975349642417,-0.04026836840470422,0.043861606446749274,-0.02351018106210373,-0.2981796481629648,0.45481907216007283,10.193798637331868,0.06334095880291356,-0.0492709185181757,0.1427366152954567
442,4420,0.01937721889034083,-0.03960059013334633,0.04204589386186955,-0.02478549521687626,-0.29343124912771607,0.45939245066043893,10.164015720439517,0.05468583981583111,-0.0475280594679813,0.1379904111970158
443,4430,0.019297462431039247,-0.03893281186198845,0.040230181276989824,-0.026060809371648792,-0.2886828500924673,0.4639658291608051,10.134232803547166,0.046030720828748664,-0.0457852004177869,0.1332442070985749
444,4440,0.019217705971737664,-0.03826503359063056,0.03841446869211009,-0.027336123526421327,-0.28393445105721854,0.4685392076611712,10.104449886654814,0.03737560184166622,-0.0440423413675925,0.128498003000134
445,4450,0.019137949512436078,-0.03759725531927268,0.03659875610723037,-0.028611437681193855,-0.2791860520219698,0.47311258616153734,10.074666969762461,0.02872048285458377,-0.0422994823173981,0.1237517989016931
446,4460,0.019058193053134494,-0.0369294770479148,0.03478304352235064,-0.02988675183596639,-0.274437652986721,0.4776859646619035,10.04488405287011,0.020065363867501324,-0.0405566232672037,0.1190055948032522
447,4470,0.01897843659383291,-0.03626169877655691,0.032967330937470916,-0.03116206599073892,-0.26968925395147225,0.4822593431622696,10.015101135977758,0.011410244880418877,-0.0388137642170093,0.1142593907048113
448,4480,0.018898680134531325,-0.03559392050519903,0.03115161835259119,-0.03243738014551145,-0.2649408549162235,0.48683272166263575,9.985318219085407,0.0027551258933364298,-0.037070905166814896,0.1095131866063704
449,4490,0.01881892367522974,-0.03492614223384114,0.029335905767711463,-0.03371269430028398,-0.2601924558809747,0.4914061001630019,9.955535302193056,-0.005899993093746017,-0.0353280461166205,0.1047669825079295
450,4500,0.01873916721592816,-0.03425836396248326,0.027520193182831738,-0.034988008455056514,-0.25544405684572596,0.495979478663368,9.925752385300704,-0.014555112080828464,-0.0335851870664261,0.1000207784094886
451,4510,0.018659410756626575,-0.03359058569112537,0.025704480597952013,-0.03626332260982905,-0.2506956578104772,0.5005528571637341,9.895969468408353,-0.02321023106791091,-0.0318423280162317,0.09527457431104769
452,4520,0.01857965429732499,-0.03292280741976749,0.023888768013072284,-0.03753863676460158,-0.24594725877522844,0.5051262356641003,9.866186551516002,-0.03186535005499336,-0.0300994689660373,0.09052837021260679
453,4530,0.018499897838023405,-0.03225502914840961,0.02207305542819256,-0.03881395091937411,-0.24119885973997968,0.5096996141644664,9.83640363462365,-0.040520469042075805,-0.0283566099158429,0.08578216611416589
454,4540,0.018420141378721822,-0.03158725087705172,0.020257342843312834,-0.040089265074146646,-0.2364504607047309,0.5142729926648325,9.806620717731299,-0.04917558802915825,-0.0266137508656485,0.081035962015725
455,4550,0.018340384919420236,-0.03091947260569384,0.018441630258433105,-0.041364579228919174,-0.23170206166948215,0.5188463711651987,9.776837800838946,-0.05783070701624071,-0.0248708918154541,0.0762897579172841
456,4560,0.018260628460118652,-0.03025169433433595,0.01662591767355338,-0.0426398933836917,-0.2269536626342334,0.5234197496655648,9.747054883946594,-0.06648582600332315,-0.0231280327652597,0.0715435538188432
457,4570,0.01818087200081707,-0.02958391606297807,0.014810205088673655,-0.043915207538464236,-0.22220526359898463,0.5279931281659309,9.717271967054243,-0.07514094499040558,-0.0213851737150653,0.0667973497204023
458,4580,0.018101115541515483,-0.028916137791620184,0.012994492503793927,-0.04519052169323677,-0.21745686456373586,0.5325665066662971,9.687489050161892,-0.08379606397748804,-0.019642314664870902,0.0620511456219614
459,4590,0.0180213590822139,-0.0282483595202623,0.0111787799189142,-0.0464658358480093,-0.2127084655284871,0.5371398851666632,9.65770613326954,-0.0924511829645705,-0.0178994556146765,0.0573049415235205
460,4600,0.0180213590822139,-0.0282483595202623,0.0111787799189142,-0.0464658358480093,-0.2127084655284871,0.5371398851666632,9.65770613326954,-0.0924511829645705,-0.0178994556146765,0.0573049415235205
461,4610,0.0046974978496736,-0.0377896592244759,0.0174290778739065,-0.0311123962338942,-0.0966884721409807,0.3837747947276501,9.193050303891471,-0.0735806498115128,-0.0270431442423385,0.1045845504256388
462,4620,-0.0124322155959576,-0.0522167475573482,0.0220168302503506,-0.0405787553187957,-0.1040418850630385,0.5034389047050646,8.809859886085192,-0.1147058805366763,-0.0440237574914164,0.1680262819069572
463,4630,0.0051372361662376,-0.0213873757700613,0.0022454714223378,-0.0308747935409308,-0.1190180034743672,0.4174421169282939,9.054781624553236,-0.0878587038094361,-0.0212390796398026,0.2102503652204949
464,4640,0.0006471200673684,-0.0207705192149561,0.0001398356692531,-0.0375587083040118,-0.1501206464597306,0.3478913079115436,9.26766986029254,-0.094721085601798,0.0015887626783679,0.1149557430811572
465,4650,0.0345245078689691,-0.0285181835296226,0.0183181355027572,-0.0273359767365456,-0.0686682435083553,0.3706566096237458,9.317126571343078,-0.1107539344332688,-0.0165299797808245,0.1109820255593689
466,4660,0.0005702070250894,-0.0219652261531317,0.024164772871584,-0.0240257945515515,-0.080256566256469,0.3983730783799699,9.219136789237298,-0.0773357366954097,-0.0393663338364611,0.0344848905227159
467,4670,0.003028813601037,-0.0357428355938909,0.0167060743365651,-0.0307935689427756,-0.15625732524134,0.3674719026655105,9.471539242134858,-0.1105395381565921,-0.0383999037090184,0.1149942255357791
468,4680,0.021271606996811,-0.0309474897745652,0.0197001956876556,-0.0165377213727156,-0.2671787238152819,0.471833254539211,8.922916720998339,-0.1040202218972754,-0.0490313489880915,0.0946813610550784
469,4690,0.0125870685051459,-0.0313067762190665,0.035838304778688,-0.0464527504300704,-0.1974374419119997,0.2647942089148121,9.445818188793664,-0.1008355478283774,-0.043287598292615,0.0601281771060588
470,4700,0.0286321471703054,-0.0276458606041175,0.0286505733434225,-0.0289643163224068,-0.0683960638486679,0.1153126799832193,9.482725048242036,-0.1061938937453716,-0.0417945467724212,0.1088758493222577
471,4710,0.0314928881533111,-0.019481715744246,0.0262756370203186,-0.0069218794738202,-0.048207887396338,0.4501318600925578,9.328540730301569,-0.091183443641765,-0.0316048548169338,0.1996806047008583
472,4720,0.0254555341069841,-0.0093477011563211,0.0272604797438725,-0.0223185461975653,-0.2206567855508671,0.5338474274944468,9.746651284888408,-0.0879889387928717,-0.0356304505261362,0.124948449618095
473,4730,0.0153758315743198,-0.0279377693078297,0.0427853666376879,-0.0157229016581759,-0.1578998746558967,0.4532730127991492,9.367117047309458,-0.0529763880708694,-0.0329914789350858,0.157480768324043
474,4740,0.0278470771350899,-0.0125326340331049,0.0317556227368038,-0.0039618740328679,-0.2043095679442595,0.2208893196794812,9.420783703975667,-0.1108509188402161,-0.0395948649655559,0.079043595769622
475,4750,0.0278323648103852,-0.0180391398732208,0.0228741114601775,-0.0190761669885664,-0.1135637721346805,0.2409577461476354,9.198702000856244,-0.0790803302107641,-0.0319332440957385,0.0915962730747466
476,4760,0.0179384658331809,-0.003136430710565,0.0511588855596581,-0.0052939192309447,-0.268542106448337,0.1895064260535625,9.49956317748918,-0.0797198395900707,-0.0323593591779729,0.1457174268440123
477,4770,0.0232078625867684,-0.0123850662297296,0.0277831141584505,-0.0182219621625041,-0.1866505844104154,0.470513165049454,9.12939338124152,-0.09295205403266,-0.0369708943688831,0.1695713385899189
478,4780,0.0176468669712042,-0.0137000398328377,0.0533543779539568,-0.0209989235789013,-0.1466328657383021,0.3715746124194791,9.7794174904279,-0.1097380372170634,-0.0221862824708335,0.1384755993276734
479,4790,0.0265214652588266,-0.0047036734104914,0.0112449692063351,-0.0081549764040433,-0.1656701237703453,0.291179828549279,9.09267697766903,-0.092246246832115,-0.0335751269841509,0.0888239402491659
480,4800,0.0426938094681676,-0.0195352494189321,0.0151969985230606,-0.0030668194551378,-0.2098456516591779,0.4719338520501086,9.214051522424846,-0.0530984803714148,-0.0204116737913947,0.1420064293319516
481,4810,0.0232598182628141,-0.0043131038521422,0.0485092894410709,-0.0175435473199468,-0.2798978749071963,0.2547355066903095,9.348375774220283,-0.1139275348630069,-0.0313880593785232,0.1070663218849785
482,4820,0.0364298276716531,-0.0044943131252648,0.0517183105911563,0.0073521772665314,0.0428658632761706,0.3136993983678341,9.37457602776192,-0.0748005595382615,-0.0297160321086536,0.0170660329233739
483,4830,0.0236539501384644,0.0062263664086407,0.0305597674414375,-0.0170568699456515,-0.0813824751952141,0.2902998357414373,9.33118950273647,-0.0873856611517657,-0.0430857738356053,0.1674986896467862
484,4840,0.0358260059468096,-0.0188285789346254,0.0463558101249985,-0.0102618889151456,-0.1587378976082245,0.2988645070337777,9.568395038724749,-0.0790778793864247,-0.0343027139326181,0.0843359979170058
485,4850,0.0303280616657867,-0.0043965189188066,0.0440232215002631,0.0092696833097104,-0.3648405133761045,0.0898679004928553,9.402837728134548,-0.088254499148408,-0.0158995187031406,0.1546620116952212
486,4860,0.0208632455283652,-0.0016602499789068,0.0446580469775035,-0.0016160574323444,-0.1110180295325083,0.3834182444243823,9.4321997337867,-0.0786237527686505,-0.0536216508821184,0.1133889222173163
487,4870,0.0554002221649561,0.0335534290990526,0.0405031432738666,0.0087106857938864,-0.333623432496205,0.2734402282165464,9.3046691736799,-0.0892100047565275,-0.0403445303461527,0.134378834256809
488,4880,0.0301324354633804,-0.0008598362211151,0.0377632654542086,-0.0098913204206391,-0.1979183260175621,0.2270420785845481,9.428735514854418,-0.082884647548393,-0.0252615466954667,0.0719795594212954
489,4890,0.0336975182589149,0.0207161270072265,0.0595690630230688,0.0069597714077158,-0.1208868052121586,0.3225057185456046,9.332149369542334,-0.081225849527898,-0.0265813404315265,0.0767244262823712
490,4900,0.0285342905145246,0.0035894632907609,0.0281463716727292,0.0217656570069903,-0.0097028094652839,0.2974611039659066,9.45419646398778,-0.1088746369319432,-0.0289123313303126,0.0702311692434373
491,4910,0.0291863149992723,0.013485365392741,0.0378197218458892,-0.0018897119715907,-0.3549545705791725,0.4716211974106693,9.498447579490016,-0.1009546673699598,-0.034464456112946,0.0724171604722824
492,4920,0.0269050675959666,-0.009218369091748,0.0236475305548783,-0.0013776153227694,-0.3755700655861288,0.3617231548708796,9.487776675802232,-0.0704758015288695,-0.0243241818081006,0.0569109073667741
493,4930,0.0211600552800383,-0.00575640009621,0.0200327060448431,0.001115775504815,-0.1909883841090907,0.1513358440405592,9.161998479208396,-0.0906391961392515,-0.0408052105502554,0.0834150073143686
494,4940,0.0316461190611886,-0.0186623352880309,0.0388217857883294,0.0097329358753418,-0.3701010236500867,0.2100883962354527,9.30331780855514,-0.11758925355143,-0.0219574743626627,0.1279411796779538
495,4950,0.0298421338150687,-0.0010352441962794,0.0335406101278869,0.0034771105515403,-0.2836556237086588,0.242617926241335,9.248365831991212,-0.0892730437887071,-0.0428788200203186,0.0080024244593945
496,4960,0.0261436019665441,-0.0011699739781361,0.0364017057127956,-0.0007020053880788,-0.2084031696182005,0.1505506300486016,9.360536522097863,-0.1081416828960056,-0.0390857180873996,0.0903371002875807
497,4970,0.0407516770048026,0.0052489530493835,0.025206517071835,-0.0130073047073308,-0.20822965103783,0.2723638050733413,9.228551767419448,-0.1044368584570381,-0.0505255881890185,0.0533721801175332
498,4980,0.0116709739840297,0.0086969183692103,0.0159017824384321,-0.010854812850423,-0.3355346718982247,0.2430205902516561,9.644808822686436,-0.0763137038242151,-0.0499282288359866,0.0362462195345883
499,4990,0.0179966692816311,0.0239062123715786,0.0564571678488347,0.0063995162284766,-0.2138666323910436,0.3223590533210247,9.441047819285195,-0.1042241588530984,-0.0375296754862535,0.0580522636290982
500,5000,0.0205861416927762,-0.0077672346920894,0.0060648475105994,0.0101744978089781,-0.3118549330202852,0.189302921440766,9.55585634008773,-0.0866345135490192,-0.0358590058168067,0.01366983633851
501,5010,0.0351720739629447,-0.0022702188457017,0.0414336094271084,-0.0003088994986996,-0.1371165888171603,0.2071537301638576,9.77078708231258,-0.0585999105798375,-0.0219256847282576,0.0619554721387989
502,5020,0.0526012525019969,0.000702549115658,0.0281993582564367,-0.0066333478198891,-0.2424646333897527,0.1506914711433482,9.726678351933977,-0.0742056451751925,-0.0243645042966234,0.0703763632304578
503,5030,0.0271362929942168,-0.0192032827873971,0.0254756514408577,-0.0108723972403841,-0.3147726456784456,0.157557149371713,9.512082746666067,-0.0953899870634866,-0.0289268723249473,0.0140822246233482
504,5040,0.029391989711434,-0.0016380340520656,0.0242133699774186,0.0011961881966444,-0.1605011015676939,0.3632921753240835,9.197346996499167,-0.086389827030899,-0.0268949841383442,0.0570346036607219
505,5050,0.0063433328977397,-0.0052834217753317,0.035780992389665,-0.0204548617950239,-0.2163227486234367,0.238730617944538,9.320588927428544,-0.0519824604826213,-0.049826220668716,0.0781885756332505
506,5060,0.0185210446819374,-0.0037252741462587,0.0142078816445154,-0.0257026534132047,-0.18800258412847,0.3046982842880379,9.571724314117931,-0.0555689569508688,-0.0562489197456813,0.0753709121946198
507,5070,0.0025880559672754,-0.0160114337946696,0.0089948135383262,-0.0068477651067283,-0.2636079455499348,0.2938400123270346,9.583090507402543,-0.083106835811241,-0.0342456890464682,0.1172115224988659
508,5080,0.0142940068230182,0.000991015391373,0.001423495097288,-0.0250123879310533,-0.2581353343485661,0.4485622746533531,9.391564161159511,-0.0690849153394397,-0.0370307669171623,0.0604273749269936
509,5090,0.0165880167694881,-0.000492035497975,0.022201833021598,-0.0154291102210509,-0.2596495087298383,0.343873376798553,9.353206265340722,-0.0607588534319262,-0.0182025247368134,0.1064380965883492
510,5100,0.0079127587943984,-0.0154694049345606,0.0202309784682543,-0.0237916678546904,-0.1827925849279887,0.2547405570143786,9.512682476056648,-0.0432456423812527,-0.0275388660858914,0.0793451373401836
511,5110,0.0285117953278944,0.0004605352570996,0.0326596340157658,0.0112164919067414,-0.3370179457159607,0.3573371534790637,9.423622608990952,-0.0658416807949045,-0.0405711949692909,0.0073857413717093
512,5120,0.0198801742969106,-0.0119626912081352,0.0128856033926391,-0.007545148322941,-0.029042936484605,0.288912291473065,9.347591122946437,-0.0450436485537796,-0.0465905744037851,0.0449411527760955
513,5130,0.0237943087866968,0.0071814798035039,0.0104916619786314,0.0134818981718276,-0.3342441521416592,0.0774647579031437,9.60181611542886,-0.072453514245355,-0.0441999151002043,0.0943194542484825
514,5140,0.0105064513496705,0.0070188770493529,0.0229500809627703,0.0076582152244642,-0.3701982268452344,0.2752617686746064,9.355047207585336,-0.0553483757675161,-0.0286163257815368,0.0590399577907341
515,5150,0.033556750306861,0.0297911822494989,0.0517234488879037,0.0198208970389582,-0.2703731947256014,0.0514881578968046,9.144865141139482,-0.0636468055275987,-0.0495521693952364,0.1347183122970187
516,5160,0.022587217488999,-0.0040126359843899,0.0178095035636736,-2.3622487067129737e-05,-0.2145517150835508,0.4074764921176327,9.721399198501262,-0.0707668207341997,-0.0476134193597011,0.0255477886075662
517,5170,0.0332474229915474,-0.004513975288313,0.0586809615842276,0.0159249063395099,-0.3279984603933356,0.2885399416326844,9.737697310283124,-0.0492794952565808,-0.0489326580574635,0.083679967254596
518,5180,0.0236062530819515,0.0221934210889624,0.0251345095897276,-0.0243777925780755,-0.1988937764387457,0.0721055226351603,9.65097116406549,-0.0502369249549549,-0.0465538441115721,0.0862304571520959
519,5190,0.0136186373798005,-0.0011391885044004,0.0140337632503514,-0.0046700271952185,-0.2771741363770153,0.2605031314949861,9.432550601812109,-0.0946745248626102,-0.0221933011345385,0.107150460615155
520,5200,0.0184507459918946,0.0070651563606656,0.0355860608727708,0.0130822359137337,-0.1549926142039286,0.2730531800267007,9.559585108542729,-0.0504247105607716,-0.0426694334323186,0.12941639273334
521,5210,0.0285303732791642,0.0011540171431236,0.021735060019588,0.010262245809628,-0.3652720324280287,-0.0703723221267813,9.391472092520257,-0.0423589340757388,-0.0381603639741647,0.0418967200372094
522,5220,0.0210870675972952,0.0098895481290072,0.0384133577509665,4.75946363715507e-05,-0.2851077934637996,0.2818034143984987,9.292152867431492,-0.0368741149312185,-0.0321773157457602,0.0163846893807757
523,5230,0.039021122017272,0.0089648984298778,0.0430005413827819,0.0070438665220539,-0.3958264057304819,0.2091371671894917,9.49947284283484,-0.0732588259720316,-0.0451505606585349,0.0792261116784698
524,5240,0.021490753183489,0.0169425017667497,0.0251194403628537,0.0053177152173859,-0.488006066390211,0.117492154537618,9.336964995184475,-0.0700563284706183,-0.0316756258553225,0.0629106243735783
525,5250,0.0291869460194629,0.0181227385590716,0.0352458997880937,0.0029806286426787,-0.0626848198872122,0.3668814706064174,9.413451467342744,-0.0099473233029588,-0.0239010902077953,0.0191347915764017
526,5260,0.0278001612118495,0.0013272988825649,0.0144875731416372,0.0062271341494543,-0.2327506423357651,0.1742158068375054,9.712226168959566,-0.0735754617085665,-0.0539843952492506,0.0220360899697144
527,5270,0.0217412324403069,0.0117598997932749,0.028887677590826,0.0117100101675768,-0.3970236837360774,-0.0331390080106429,9.148217457359676,-0.0473076605122518,-0.0370383079402613,0.0991167154606571
528,5280,0.0283997293613965,0.0160378808754951,0.0300375132964569,0.0035885446069598,-0.2973366383596706,0.1769900494610605,9.404750612914274,-0.053211137513297,-0.034879692338685,0.1178106305556174
529,5290,0.0532288292877502,0.0035299416649501,0.0364400386041391,0.033563472159224,-0.2342305240787967,0.0808563511261771,9.696604680924832,-0.0526085340249557,-0.0418564001007738,0.058378502292633
530,5300,0.0578078556818126,0.0494288831413981,0.0536449370626055,0.0233183340328277,-0.290800576811332,0.1114733319404925,9.699146402501352,-0.0664793733976324,-0.0560110649706536,0.0318650031611548
531,5310,0.0342696251989095,0.0263962030557511,0.0213331921505762,0.0175222240468066,-0.1117605020373465,0.2007857678899597,9.689966461839555,-0.0206351632117171,-0.0444142296196537,0.0836314106570349
532,5320,0.0288947996156258,0.020794884221318,0.0341582676434355,0.0299252924031286,-0.204815302518582,0.2901760305570159,9.705171269888233,-0.0279380819342481,-0.0558791601319618,0.0284816976843303
533,5330,0.0316084419774263,0.0140020258416152,0.0430938206628104,0.0302293537757212,-0.4588825128916851,0.3424206147568226,8.93024611905729,-0.036794112499008,-0.0336648911341554,0.0891697771306315
534,5340,0.0395180563913563,0.0175096516153844,0.0313483451234903,0.0310554153303108,-0.1378674899769365,0.2250503584185621,9.277913647659068,-0.0310595384884094,-0.0559673978401668,0.0618091619471179
535,5350,0.0341985974783339,0.0325618627747428,0.0533712544716453,-0.0059796014665116,-0.4121218508425613,0.0697039796727568,9.821145310106552,-0.0445888195048783,-0.0356723604371241,0.0111225907043088
536,5360,0.0374825977152672,0.0381613218118509,0.0332290304230834,0.0237329005540549,-0.2270412885193601,0.1883692944273035,9.905393015884268,-0.0358066727009088,-0.061121071199084,0.0636973433245652
537,5370,0.059169750612944,0.0140200369595976,0.0342157029324072,0.0385704024720067,-0.1944631151644624,0.1008421805140248,9.55530902919242,-0.0691968502583548,-0.0311594090761824,0.1115388366645128
538,5380,0.0303524792365638,0.0199634877807898,0.022432635745875,0.009320648604029,-0.362610185984931,-0.0395139263100849,9.452062017426435,-0.0466884388940681,-0.0632880931999161,0.0733220492281247
539,5390,0.0470326700953726,0.0353277331493226,0.0338840412690479,0.020020293773693,-0.2211792778835579,0.0112341869995097,9.246993572460624,-0.0161987295215013,-0.0320868670530538,0.0240178628297157
540,5400,0.0429544258481932,0.0176715191924416,0.0468563324554718,0.0251805239952042,-0.2696991593522601,0.0701712794200573,9.862074051471431,-0.0031803410016283,-0.0601470469784762,0.134110451729613
541,5410,0.0043097043632438,0.0006129385914472,0.0131275174685282,0.0147438165237838,-0.3139759528407675,0.1087403922723902,9.585942872727806,-0.0460191316601308,-0.040546238243682,0.0582146524650296
542,5420,0.0436390882160466,0.024588094801654,0.0381491635633915,0.0146321573120329,-0.1531300161022618,0.2357045153406221,9.626767712298058,-0.0445441328054934,-0.0503770747904726,0.0658947372047421
543,5430,0.0336294644304637,0.0245749271618732,0.0243248409436738,0.0185431545981702,-0.4120395645715515,0.1604412031456774,9.90410933314114,-0.0417224314845848,-0.0442360455811286,0.0359573301584974
544,5440,0.0118386661686506,0.0087150885237587,0.0115670741049079,-0.0028490011774957,-0.1353508291901271,0.0396137331328357,9.810935191785113,-0.036773469321886,-0.0396800677989525,0.0535324102576443
545,5450,0.0285608920157437,0.0177021932717203,0.0207618687159544,0.0082345710447672,-0.2903712123753943,0.2013447505142589,10.220810466284114,-0.0637440085245946,-0.0506765984565566,0.0080061333763092
546,5460,0.0172566526974241,-3.123793367613113e-05,0.025502573346753,0.01248097374771,-0.2651906506810265,0.1803932159456568,9.808110521817262,-0.0141045941505882,-0.0602004594709221,1.356499494769084e-05
547,5470,0.0152335573650109,0.0011854972047612,0.0289897022021795,-0.0002584855385114,-0.3621386305399582,0.021434270068182,9.515625202518532,-0.0234746357053024,-0.0494430721839806,0.0756533781599188
548,5480,0.0139179123100491,0.0141378811210001,0.027519126719802,-0.0108282934353223,-0.3342774887311097,0.0488554256366084,9.637072157691811,-0.0204849704323398,-0.068804142146228,0.0097068934108503
549,5490,0.0109123346758187,-0.0001698598611854,0.0150264186392821,0.0080431651065576,-0.0894885833889995,0.0649212313158217,9.957808473352946,-0.0293582058496852,-0.0561474881317207,0.0346991289727629
550,5500,0.0214007757760777,0.0053642364622935,0.0311232050519918,-0.0083581127759229,-0.4535874742871827,0.1596838860748653,9.471129806083068,-0.0079710679318354,-0.0484501582843059,0.0800836607519323
551,5510,0.004195121624829,0.0222850509876299,-0.0017634777702767,0.0052258007132978,-0.1931971721424613,0.005595575501446,9.703765315173696,-0.0358748534041168,-0.0489229074418953,0.0306158167314774
552,5520,0.0149231035638736,0.0094369845296039,0.0008988201091679,-0.0069628554747818,-0.3331124128820825,-0.0012721574759876,9.887139887799435,-0.0290778821127348,-0.0507759393111465,0.00169481110403
553,5530,0.0059241770377464,0.0034957190837032,0.0146911409437321,0.0073969147705826,-0.2337854557859219,0.028475610430446,9.962597100190369,-0.0048443369575311,-0.0506384587598436,-0.0131651428359857
554,5540,0.0066128995190045,0.0038599871756067,0.0327085075698063,-0.0155905822980901,-0.1948910448079951,-0.1099372203799987,9.557676339269024,0.0164747289800846,-0.0548174292908365,-0.0426785080159061
555,5550,0.0238983124519797,-0.0099266381016147,-0.0111784449183173,-0.016409420443298,-0.2571565367152306,0.1605041103777988,9.719491178217414,-0.0457066832474953,-0.0445762013910185,0.0077082533419626
556,5560,0.0038241009053612,-0.0035222382448386,0.0039913921039509,0.0042831996989568,-0.4556227363694811,0.0169058530338264,9.93607252743258,-0.0321053244735206,-0.0423726595747033,-0.0143690508879451
557,5570,0.0197350472757447,-0.0120347796559616,-0.0002742767171453,-0.003946871823239,-0.4407539946722212,-0.0677272249434052,9.779849852870456,-0.0133896967410535,-0.066284644505359,0.0548994564311167
558,5580,0.0063587377424721,0.0140996892503756,0.0059467926406008,0.0017150792194288,-0.2422400673084549,0.0593613078748507,9.58235284097212,-0.0280902038569406,-0.0613983211703002,0.0056882150647583
559,5590,0.0046081850297298,-0.0126852378177627,0.0023947682249986,-0.0006197854904578,-0.4054930324342966,0.0108671444600217,9.614108493684055,-0.027328661855717,-0.058075446677062,0.0817843955038678
560,5600,0.0102029880360571,-0.0004967720200692,0.0248491133682225,0.0094885756303446,-0.2059679417469117,-0.246783389895904,9.851828837909077,-0.0172894237347287,-0.0589527363922842,0.0232091564023894
561,5610,0.0046685058336474,-0.0032187548118334,0.0098603290231702,0.0014138541703172,-0.2242878732449473,0.2610470636225502,9.614338883257751,-0.0302693481649851,-0.0393538559569063,0.0563536985326585
562,5620,-0.0096180176884317,-0.0050186308861757,-0.0152852383827141,-0.0138395105157829,-0.2473547039060569,0.2230851335773048,9.927040086678645,-0.0298349954429282,-0.0531303543300742,0.0642624654552931
563,5630,0.0041078794564803,-0.004620057262327,0.0015212129792144,0.0050123811243144,-0.3255338821857861,0.0344809188393558,9.703883715563746,0.0013491770848452,-0.0424825184167479,0.0170071176238145
564,5640,0.0032468716949473,0.0049088049249575,0.012618071357304,-0.0047939636116825,-0.3085702174322606,0.0113786031102447,9.698255308307637,-0.0352041838023689,-0.0401435633690298,-0.0149069328208693
565,5650,0.0079695156521936,0.0061017118333274,-0.000103913461538,-0.0021232483926597,-0.2528253877917764,0.0087795537820365,9.808709537928149,-0.0328440643316754,-0.0434913001209254,0.0840555026400046
566,5660,0.0099448671768548,-0.0166419500657373,-0.0101038564307412,0.0025907199800447,-0.435480301833379,0.0306575015264083,9.526282442530803,0.0117812536861889,-0.0262144659608165,0.0528902560317936
567,5670,-0.0130608756207719,-0.0135810036350065,-0.0230514689983488,0.0012800758685627,-0.1936788904137413,0.0797991367624091,9.620563979786048,-0.0045242725138953,-0.0672096867089507,0.0139415445904861
568,5680,0.007409987042038,-0.0038751350365519,0.0060470121735687,0.0074078179347276,-0.4015277471240578,0.0588139590193868,9.71318194223844,-0.0027236453341648,-0.0380644705987265,-0.0162096590741151
569,5690,0.0037916249650923,0.0127141234243801,-0.0186554980641097,-0.003962459912976,-0.2063611008330469,0.1056187181158158,9.720359618622917,-0.0233112434661152,-0.0592152579860136,-0.0079418092569697
570,5700,-2.3223674531542768e-05,-0.0038197864345558,-0.0031760127045534,-0.0153722892664444,-0.3118572292078953,0.2436648482023291,9.935814939956463,-0.0360966290007165,-0.0472700943927797,0.0063422452537845
571,5710,0.0063272932460627,-0.0096046697867147,-0.0173053995702276,0.0014344466640603,-0.1997155786712482,0.1190864549492319,9.958468944241591,-0.0375403578260189,-0.0581297489560304,0.056341181775058
572,5720,-0.0248063189489395,0.006695874064874,0.0144947891748743,0.0196384697994458,-0.2259745814004357,0.1643089033894291,9.695385430877042,-0.0386470661296967,-0.0556664332887869,0.0263029669733955
573,5730,-0.0002051098157228,0.0002886827315587,-0.0088892753230614,-0.0042332536264255,-0.1289225772039761,-0.115011919282422,10.02027643445596,0.0120169337900342,-0.0510113131356258,0.0198430000348681
574,5740,-0.0118312807029972,-0.0138849938056435,-0.0020190138908723,-0.0023439624994606,-0.2774984446455028,-0.056115491838813,9.912169097707446,-0.021798034438245,-0.0536625930504721,-0.0132030487269504
575,5750,-0.0033581537157883,0.0181620050970908,0.0025907640923284,0.0067635833436827,-0.1276253474526288,-0.2316612775367164,10.055481138677816,-0.0139636121697925,-0.0558033813761259,-0.0434080134126263
576,5760,-0.0054355124410923,-0.0099362401690876,-0.0012981828181286,0.0259049967208636,-0.5068713427562703,0.2044595522089893,9.762151826036847,0.011134471887054,-0.0498228440364634,-0.0027006431119729
577,5770,0.0037345796543557,-0.0082308056756376,5.921380114966784e-05,-0.0162703579110427,-0.4131410582088899,0.0944677399967332,9.901589727452349,0.0060669382508106,-0.0556753473747192,-0.0316679313653171
578,5780,-0.0052620016112513,0.0033688635925144,0.0042210522176573,-0.0042192217748421,-0.2565565367660811,-0.0811419172394658,9.600035676885184,0.0221202379042794,-0.0445846804478054,-0.0755705284543544
579,5790,0.0067434452360205,-0.0057091978439829,0.0045104447376724,-0.0051910538798189,-0.2755171908577791,-0.0202153649177003,10.069095548206157,0.0159444383578144,-0.0332496090257517,-0.0024588368038354
580,5800,0.0224011789535473,0.0244341908397886,0.0005411429169508,0.0210702446456985,-0.4106333362924524,-0.1325413052673467,9.937119979736556,-0.0005564166715229,-0.0564834702571134,-0.0295875054202142
581,5810,-0.006610524399683,0.0163642007432035,0.013900196687483,0.0174324859238279,-0.3007568245937989,0.024629492118617,9.94152667357183,-0.0018116107027817,-0.0466318936708024,0.0087507553720754
582,5820,0.0103553846993379,0.0092179020505877,0.0281982901806321,0.0108809984531325,-0.2519382120549261,-0.0719139949963558,9.989478191692816,0.0548196499259447,-0.0385568144652776,0.0173504271153577
583,5830,0.0075329796520446,0.0136772666701867,0.0016527195712812,0.0257817375463081,-0.2466720833597193,-0.0342861588245104,9.613267508859346,0.031192899787843,-0.0457751249445808,-0.0273460470506821
584,5840,0.0126772635171379,0.0112313827662365,0.0161329911657642,0.0035225473637453,-0.2126541439783119,0.0662890456160689,9.75177255733482,0.0024021420378802,-0.0528697154814983,-0.0672808538849563
585,5850,0.0074781619639334,-0.0036538654681544,0.0018833580722424,0.0028586676487089,-0.2951111192446148,0.0035876572296804,9.8599463363718,0.0051910026750631,-0.053175057631265,-0.0146687934822491
586,5860,-0.0047903191503792,0.0017987599875889,-0.0033487540716921,0.0101608319396335,-0.2093013717247697,-0.0161696278510339,9.536017674969068,0.0209064957625471,-0.055553986888942,-0.0219713528945091
587,5870,-0.0031775285042393,0.0011264431239336,-0.0048626659171303,0.0208336713020209,-0.2768298257167901,0.1610940070948723,10.003792174616938,0.0202784086206825,-0.0487682637063291,-0.0287836564373033
588,5880,0.0060217035776702,0.0021964550217664,0.0193899164763599,0.0047329988399003,-0.3344963167249065,0.015016965297385,10.075068380498251,0.007995505730832,-0.0409212838969699,-0.040342828674599
589,5890,-0.0047737023321851,0.0193666291331421,-0.0106007390391736,-0.0129170719191369,-0.1473015087663317,-0.052170582484021,9.81691493202238,0.0453958773716018,-0.0521581360140949,0.0826785622764342
590,5900,-0.0060188283001896,0.0028554535697278,-0.008521846956454,0.0183237962313602,-0.2994752798696029,-0.0666464614481954,9.80746564021639,0.0026234285479883,-0.0388884278512956,-0.0512569004837453
591,5910,-0.0066557854138292,-0.0039316012265638,-0.0001977573456428,-0.0058959738523864,-0.3755407961436009,0.0256977609255481,10.206065176045582,0.0680049993723521,-0.0579381716159492,-0.0365585702823287
