index,elapse_time,susp_fl,susp_fr,susp_rl,susp_rr,acc_x,acc_y,acc_z,rot_x,rot_y,rot_z
0,0,0.0182683526339639,-0.0123919576784567,-0.0079554953535143,-0.0078180248538737,0.2087740848837484,0.0889608240018092,10.372233682828186,0.0729930926764794,0.0512997583965091,0.0638196393164541
1,10,0.0122964258766498,-0.0268944087916705,0.0156983335293106,-0.0197140221816731,0.1322293069942229,0.2812900744712022,9.91896237373251,0.1054010092280322,0.0405880606531082,0.0560603058513813
2,20,0.0109325098553253,-0.030765277486853,0.0051490983184803,0.0028381603133048,0.2068851335858864,0.2210018384735453,10.030711107391069,0.0838439062514228,0.0166032939183753,0.0501012544046961
3,30,0.0327592413145833,-0.0072615194924312,0.0152171543345536,-0.0221876193966443,0.2674953075382869,0.3395618405100669,10.242512428707023,0.0883756815174149,0.0409978231749322,0.1520750633155564
4,40,0.0183166597620437,-0.0303566109372003,0.0116651899017654,-0.0152633792754106,0.2461811237117357,0.1981751696519915,10.528148006804658,0.1046868068753855,0.0404501481046569,0.1380288287767468
5,50,0.0048012349925842,-0.0346303210249155,-0.0073801762884248,-0.0208713668068327,0.2025394991882424,0.1927953216660022,10.472996439998605,0.1025200951392128,0.0264543748508917,0.1133053195029243
6,60,-0.005191433970788,-0.045316919033084,-0.0168511757000137,-0.0335212870505004,0.2966270821682205,0.2364950654510567,10.00105911645204,0.1086407191062825,0.0376083180654196,0.0613907170724213
7,70,0.0050137812179323,-0.0137946424967564,0.0145822981615838,-0.0368127699101677,0.2907372641364212,0.3383352844313668,10.550956340969384,0.0906755918127786,0.0497128529295295,0.0781176052580755
8,80,0.0342537173853153,-0.016338226640283,0.0069325670655839,-0.0107038529731959,0.1438179692465752,0.3483603867951699,9.971215881067344,0.133652953449922,0.0348750810053617,0.0879761923035844
9,90,0.0026073667073726,-0.0196964295613593,0.0079114573107035,-0.0091987492316284,0.2359563209729819,0.4271108382208672,10.180316005133072,0.0817635832809087,0.0490500826078773,0.0779430006418178
10,100,0.0181876421087181,-0.0190760980978141,0.0043344808003626,-0.0064362369377231,0.2817883129257102,0.4677881673550011,10.32325676481061,0.0754180670783105,0.0417726032563335,0.0785823565564274
11,110,0.0163726269035602,-0.0241243429419376,0.0172690192564802,-0.0099102418696699,0.1445928611859614,0.3496336954462669,10.402383547904073,0.0819140202811342,0.0534903078727953,0.0564738839991671
12,120,0.0316862757987914,-0.0067211740934898,0.0113996362483193,-0.0019091354079822,0.2881512213019548,0.3093394362945444,10.402202849608493,0.1457852762554786,0.0307466979042092,0.117612589057312
13,130,0.0331560632386145,-0.0162463603891402,0.0101157376837943,-0.0335829836233644,0.2995383278485923,0.2206143807049573,10.14628259644509,0.072292361365328,0.0518319033154644,0.0750346061433564
14,140,0.0276069721985009,-0.0405362701237071,0.0089340577284949,-0.0054431740204637,0.3989119197078768,0.2558137077315938,9.904212622939564,0.0954843544912625,0.0480234704585067,0.0952773983556541
15,150,0.025510420394421,-0.0182262057235842,0.0321977883322775,0.0022155655533371,0.1435087935308562,0.2954449021808045,10.351153252998678,0.089897488616707,0.0454375157520722,0.090373280557163
16,160,0.0309180199078542,-0.0219789420905067,0.0271789552603132,-0.0103957708006605,0.1215339812878651,0.4205887825127006,10.240688660070246,0.0896322069962615,0.0502948471756216,0.066474853294541
17,170,0.0218392404505297,-0.0100089701449378,0.0095541900445165,-0.0060167828766651,0.3054489102207082,0.2991444802793189,10.51427515683404,0.110861451377647,0.0443007004804192,0.0772957679196999
18,180,0.0381643918081851,-0.001227242145677,-0.0028014848735335,-0.0074646771404361,0.2993773384282236,0.3345190731405945,10.20460405768645,0.0939963813916457,0.0485384637870736,0.070698398921137
19,190,0.0231064011643212,-0.0102003804682311,0.0136025083813052,-0.0332670996200536,0.39883794179592,0.3802334726252359,10.257342341139056,0.0997678067863128,0.0280343950910407,0.1419908953820908
20,200,0.0276395078575641,-0.0279797398699345,0.0156102592536862,-0.0161068609089804,0.1889701728472338,0.3478502871871772,10.40976496429998,0.0994796955252652,0.0460190657278702,0.1004299642298732
21,210,0.0132287327903169,0.0018662436015982,0.0176030315358844,-0.0086761204059444,0.3944720257239363,0.4390806684888364,10.049866952917558,0.1124486330031579,0.0619328128313789,0.1277764847516952
22,220,0.0301792942587496,-0.0049336047858426,0.0167466966001015,-0.0074571351268782,0.2482935823371213,0.2716640627277026,10.410460664828442,0.1021966308349533,0.0338185410889706,0.1696982196128445
23,230,0.0266694186547311,-0.0243178267013331,0.0095919037777909,-0.0172953630203461,0.08836928856423,0.4531459747127683,10.405406053777764,0.0626605373208832,0.0523802093032591,0.0599518445836883
24,240,0.0151927017877505,-0.0263867076358756,0.0121172862492902,-0.0185691443831642,0.3647934273575876,0.4066094322534048,10.171625855649651,0.1216004628856382,0.0412342893210452,0.0803168609373782
25,250,0.0436523424978975,-0.0054290313284723,0.0185675909279531,-0.0202384380845806,0.3733045739310813,0.2725658056562747,10.34149464348977,0.0934957825497758,0.0385331036900014,0.1098862042073573
26,260,0.0238516756207446,-0.0443474031290658,-0.0049140977287465,0.0057980712848013,0.3606026463556243,0.2506923320524282,9.994519542850403,0.0722478435668424,0.0416594208903084,0.1418640023154067
27,270,0.0084307056237338,-0.0147704640469181,0.0335800346755351,-0.0210010582529649,0.392237079930286,0.3740191996934152,9.918831258496995,0.0968336124974093,0.0465248647364419,0.1106443072583479
28,280,0.0169330481163427,-0.0240739016884225,0.0198684716323802,-0.0125270918183916,0.3267282965884615,0.1965070003014414,10.165365572012217,0.1028831068674274,0.0521274409832023,0.1216615751478177
29,290,0.0426401404723826,-0.0208236935406218,0.0050847757644234,-0.0186476234089529,0.3303832732978957,0.3134901979639027,10.209448342685205,0.1265261219789895,0.0521164191976731,0.106761463681798
30,300,0.0130962780272646,-0.0265896316160281,0.0092841976950004,-0.0170337944647705,0.0644276128002051,0.4432115234308251,9.743240719913915,0.1178114211720744,0.0459174682403578,0.1158367164947409
31,310,-0.01920867548442,-0.0329091229701338,-0.0062422894818451,-0.0269615353809729,0.3392781918635545,0.1607889994253775,10.18799080182567,0.1225213635054263,0.0655740293528472,0.086360212774211
32,320,0.0112455165460362,-0.0439974209691724,-0.0181009960207386,-0.0257689774491971,0.3260998807877558,0.5311047429921588,10.07808112923255,0.1272515870334419,0.0470678946704603,0.1215984837453447
33,330,0.0410859237036284,-0.0050554337399299,0.0254827353187368,-0.0154622671872356,0.3718204258090846,0.2576287197772622,10.431033955920263,0.1229701714918374,0.0413832369608781,0.0892825030130549
34,340,-0.003873366258148,-0.0342537681970385,0.0149015724030489,-0.0220909407904875,0.2918612354999046,0.3263990383857381,10.21975982088861,0.0642994366883357,0.0443405530740072,0.1743625000888908
35,350,0.0145937777393816,-0.0432133223322481,-0.0167481166582465,-0.0395240712928265,0.5401062248788371,0.440658104072882,10.385864147627192,0.077436170204164,0.0488034775398341,0.1095103770037571
36,360,0.0133788330393749,-0.0379005474021594,0.0086261959046018,-0.0293663684263077,0.3236837919042952,0.2589931803578906,10.454668505945357,0.1082107535299731,0.0495727884700658,0.1034387777661984
37,370,0.0086010739025304,-0.04462983633285,0.0058127448262799,-0.041461798213109,0.3669132059239262,0.4655690377530778,10.236595415493674,0.0912390053135238,0.0530958435435946,0.1170200333636108
38,380,0.0057237407986571,-0.0412967635303833,0.0061654131196961,-0.0426276006264428,0.3293248563474415,0.2577006965357611,10.337305026611954,0.1373245225662125,0.0380036369036187,0.1011572854671357
39,390,-0.0057094725186052,-0.0567857834449429,-0.0053291331483343,-0.0243066227395865,0.4000072432057703,0.3400249954554466,10.414473479742924,0.1112200599718329,0.0509205882582008,0.1430975032431211
40,400,-0.015943986113353,-0.0384129574280388,-0.0029382030423813,-0.0292342619989949,0.2510135898438744,0.2193366295527493,10.32023517642337,0.0944909722198947,0.0306730714187011,0.1056442841575633
41,410,-0.0131395782894373,-0.0489934714411816,-0.0019772832324294,-0.0402288575083516,0.1992913115755055,0.3008970321825608,10.067992818376773,0.1091950979342243,0.0498136826218859,0.0940651425704675
42,420,-0.0153319510341653,-0.0453941974723621,-0.0038853029813167,-0.0584565679185386,0.2112792875044856,0.4915939813138498,9.935386522504864,0.0700672662320895,0.0488065605830501,0.0648448000653123
43,430,0.0021124736456737,-0.0452846181842113,-0.0225980469888586,-0.0516103906159528,0.3143969844776138,0.5076759716145787,10.64436194362752,0.0707979791306044,0.0648289167322071,0.1531112906822803
44,440,0.0040881166169836,-0.0414287209052248,-0.0126885419600503,-0.0427140823015732,0.508714412721853,0.4310631957051598,10.039006125456176,0.1382528205372559,0.0490259920607183,0.0913384374529473
45,450,-0.0212876444561499,-0.0554352819873465,0.0017910280960963,-0.0473963653176336,0.2457240763906023,0.4474246534809162,10.276905248853616,0.1076698885555177,0.0535069602239878,0.104394870949606
46,460,0.0072984616492615,-0.0571253440091764,-0.0102629110140379,-0.060480356732451,0.2546930720834235,0.294523924764803,10.16147023606346,0.1256167897674572,0.0487635182325331,0.1360210163540798
47,470,0.0027825017746579,-0.0432414519918961,0.003719265041017,-0.0368697139285657,0.3202822764327127,0.3735875099229717,10.714119605821784,0.0914044953665692,0.0376613145776928,0.0942566114964721
48,480,-0.0018089476104528,-0.0511792302717089,-0.0103918377355078,-0.0363699102164766,0.3284967286839434,0.3281506638896681,10.204425151345276,0.0732291953641778,0.0376518928700884,0.1263917080030822
49,490,0.0034348341306532,-0.0355386435110748,0.0027061340682762,-0.0600926594414511,0.3202828800219409,0.4351009952211858,10.659027951468856,0.0808976112083098,0.0362399996900545,0.0602412975003742
50,500,-0.0073867147885753,-0.0409989857772034,-0.0197049405432831,-0.0446026423727364,0.2671791075193119,0.2973848617989361,10.395466086036246,0.0806813187075171,0.0415043303168178,0.0862007540971267
51,510,-0.021681824220722,-0.0588187720151685,-0.0223282106394363,-0.0515259900649647,0.3101866834398984,0.4700149329274027,10.302737989916848,0.0559317561632352,0.0496594001526653,0.1902932419457999
52,520,0.0056377018130821,-0.0413144210602233,0.0131752460024784,-0.0377827056935401,0.3236736360188925,0.3621622129228445,9.954351218255184,0.1006788321913138,0.0459293659177162,0.1506365773841838
53,530,-0.0082381336904789,-0.0285302417980049,0.0069733051263777,-0.0393027275746288,0.3151893683305883,0.4426896334117248,10.406660239313366,0.0971556746500998,0.0461635319291489,0.1682135903984709
54,540,-0.004511588894142,-0.0536922775874884,-0.0073748614881637,-0.0567015296694514,0.2080025637551442,0.4123097799001589,10.423189619394966,0.1005680347864601,0.0412461853089416,0.1264947261407097
55,550,-0.0010882318790411,-0.0517838734936522,-0.0063683405369773,-0.0470606776976198,0.3033036822217896,0.2160173671132705,10.187319214923972,0.0767311180468962,0.0595861605117484,0.0760123989086456
56,560,0.0141883808829546,-0.0482345920178771,-0.0106047021642991,-0.0305149526677434,0.1065566755720135,0.3645696102583634,10.665029006434615,0.1261531300115504,0.0445740543554134,0.0748416088947122
57,570,-0.0049088666544043,-0.0534969512083435,-0.0166487890775658,-0.0440598822366934,0.172189056085173,0.378650685004293,10.224538708277196,0.0425764289963719,0.0519997897364654,0.147424520250283
58,580,0.0266989881732835,-0.0461282881434635,0.0002786028303769,-0.0344201453550875,0.3751249807031894,0.4344675603308375,10.32491350683839,0.1039155282143725,0.0419185856431571,0.1698416386954539
59,590,0.0124516243275216,-0.0439584270306663,0.0079562369753986,-0.0345541678346492,0.2854942073412118,0.3590708884700468,10.401252216996896,0.0861877551076109,0.0347729660331406,0.1288525846891995
60,600,-0.0113592523025427,-0.0513393879417759,-0.0141464275631572,-0.0346604762650165,0.3779122340654619,0.4334253136149754,10.302201619049914,0.1204023005799341,0.0580717740580394,0.1366563522312992
61,610,0.0054752485127759,-0.0470627726823776,-0.0070139550771068,-0.0317265278538215,0.2931428383670428,0.3674642066281419,10.116516969460484,0.0936349798307873,0.0350076390754725,0.119050753522744
62,620,0.005383673720025,-0.0490946095689031,-0.0170464333891892,-0.0456713515104681,0.3126833012967999,0.6038069572310075,10.42536495320663,0.0805074681562045,0.0551865815043563,0.1293603981035319
63,630,0.0114512731460772,-0.0367412526727877,0.008849278223716,-0.0374666770965172,0.4513558856229503,0.4434521944618409,10.27680475292684,0.1004241221806918,0.0641625232056065,0.1187305414948584
64,640,0.0189431620392332,-0.030329679785363,0.0124859804276332,-0.03000908233552,0.4063475035674475,0.2555048946718132,10.103208666178103,0.096215899773976,0.0228501272688933,0.1206337070127309
65,650,-0.0078587727310992,-0.053305523717407,-0.0103700464827872,-0.0453743355082439,0.326112316535352,0.4025033248305614,10.146840133071857,0.0672712838439629,0.0477874418495534,0.1432987819794114
66,660,0.007452705163647,-0.0315291499632309,0.0152536264741048,-0.0294123369128367,0.3724025262772162,0.4616867752725497,10.22529446009746,0.1038469850275487,0.0529103601574228,0.0740079286399113
67,670,0.0098232353679313,-0.0278952941148787,0.0136379829456586,-0.0285530288839872,0.3337923471029012,0.3932748079764223,10.22210650310888,0.1100595470999775,0.0671879299011105,0.1032532432402497
68,680,0.0127115729291787,-0.0330786479456231,0.0187630444917938,-0.0275224593491778,0.3328223588409902,0.6773611447423622,10.552409499482208,0.1344858557180683,0.0439151758808818,0.1239461227723824
69,690,0.0166609984529373,-0.0380562095498023,0.0239018667428253,-0.0196742115107075,0.2944515976646822,0.2890382894937402,10.39351087702692,0.0491496038589622,0.0493118061420781,0.1587677374029726
70,700,-0.0018149203949732,-0.0494176695226371,0.0007365764893205,-0.0483338213139289,0.541901486169246,0.6182287440653343,10.28523821420805,0.0857139829780125,0.0658022295929972,0.1266459947725668
71,710,0.0096821235932751,-0.0364566893648297,0.004410619518209,-0.0394069813807336,0.3376111075690335,0.4663667310480084,10.654369086436562,0.0783553070128351,0.0736000002846894,0.1279113331399253
72,720,0.0268500514455145,-0.0266258563571095,0.0195202353409578,-0.0164291790167038,0.504406209165333,0.3147365187850126,10.312994784903337,0.0850738550542,0.03853675260847,0.1277887898459355
73,730,0.0085528630710049,-0.0292458992386845,0.029094340346509,-0.0286095946041033,0.238070361377114,0.5070203112340879,10.409613557220302,0.0908272358593422,0.0555177815926769,0.1210130211369956
74,740,0.0247373994767198,-0.0406359627840631,-0.0044336925819777,-0.0266953306301604,0.2855990267358446,0.4404650795794402,10.372511589650747,0.093584638004666,0.0579384339323097,0.1050605305505145
75,750,0.0201290937405448,-0.0243151942304382,-0.0053343136148669,-0.0242632361083173,0.2031181855513957,0.404390260039398,10.222967750897045,0.0945832091800497,0.0462458700513014,0.1263199026928105
76,760,0.0153566059600204,-0.0367361518716887,-0.004041222323898,-0.0418054226412048,0.1117973874849922,0.4223180061744123,10.037762619551682,0.112188474625655,0.0623291760297715,0.1129505050683638
77,770,0.0172743267357045,-0.028504680440956,0.0001234727009434,-0.0472006254831523,0.4591958599981471,0.5887331266949332,10.012527824510714,0.0749632895402248,0.048064952593653,0.0957712932509934
78,780,0.0120382880554338,-0.0398621444722105,0.015891012362387,-0.0242659558000759,0.3233589202033118,0.4398082666748457,10.192060344544284,0.063288748160764,0.0281937552368618,0.1217136314150416
79,790,-0.0011633035415211,-0.0212693219034586,-0.0159570417529133,-0.0413814585933735,0.3240706441150525,0.4760990225507628,9.740539098978678,0.0576042108055655,0.0515222275950144,0.1266530119630261
80,800,-0.0032486954287614,-0.0719080496024257,0.0086599216646998,-0.0391671768091832,0.4964272498402669,0.3806264355158638,10.296719931914645,0.094073139807913,0.0516884218598252,0.1485375426007336
81,810,-0.0030829815670381,-0.0400869504911027,0.012593190801659,-0.0185611807103418,0.2550108737535106,0.4886363967222278,10.300421059490615,0.0342777508211142,0.0354491479204803,0.0884278629375825
82,820,0.0145468461698976,-0.023299886249161,0.001453054607566,-0.0456575891733104,0.3697807366053693,0.1947725388243504,10.363849442660976,0.0559547419157866,0.0452254483323049,0.113969203217151
83,830,0.0084617358730256,-0.0440778598236057,0.0157561528586972,-0.0290392637344834,0.3645974825195378,0.4351467884197797,10.709015734840134,0.1276891221827479,0.0557671145013581,0.1540001561931335
84,840,0.0033834539268899,-0.0479532290269466,0.0104226083778801,-0.0363422656289421,0.1623079035479911,0.4252193775279675,10.231650388740912,0.0809468345403125,0.0423425120920148,0.1163728984384026
85,850,0.0043117875272611,-0.0470343409456621,0.0045932954831532,-0.04243978305198,0.242392646681938,0.3263607753763415,10.035459433913934,0.0765278940178179,0.0551278190084017,0.1963443267230671
86,860,-0.0039310473428327,-0.0391475295594743,0.0004726990445364,-0.0378828803344049,0.3072335170866576,0.407285904338147,9.916457007066452,0.0625267947510254,0.064398741455159,0.1040908956819382
87,870,0.0053731861959492,-0.0435425034233136,-0.0013276387180185,-0.0395303740079493,0.3340338064016707,0.3411098777857851,10.06421907999425,0.0770307883390041,0.0442194305075651,0.0899378284958438
88,880,0.0095007568411678,-0.0445103619270278,0.0174238368874332,-0.0310290586211985,0.2090434058290821,0.6078284386246557,10.126005375282409,0.0839940526031805,0.0451715295359313,0.1883074706331093
89,890,0.0307673949882233,-0.0063494355704346,-0.0046133403317321,-0.0383610310879534,0.3466188113367791,0.4486318576978532,9.795503595285048,0.068118523547305,0.0536872496128751,0.1757917060390441
90,900,-0.0076733917553991,-0.0394254711305399,0.0075302223401253,-0.0533643210945314,0.3177776598372134,0.4630463071318212,10.378650722582826,0.0798685382138064,0.0376593008543712,0.0887553150403879
91,910,0.0264056516811276,-0.0340809355829174,0.0117897674922651,-0.0553897079232047,0.2741951633537269,0.2878483019519562,10.374970823619346,0.1024101917629413,0.0543516568284489,0.152280144318115
92,920,0.019749727018091,-0.0344733682410658,0.0165568280440604,-0.0294496557807007,0.2980362477645709,0.2934258645126156,10.348324373156428,0.0843956405250733,0.0571529584699772,0.122204579806393
93,930,-0.0072730377087506,-0.0418878295474953,-0.0013935219813008,-0.0415503615792566,0.4246678247440122,0.5612879367837034,10.152729348920625,0.0753473247776637,0.0534896868759979,0.1297558598031948
94,940,0.0129322590229751,-0.0605105223351569,0.0123306687108306,-0.0287598074439049,0.2638315199210358,0.6401771882019532,10.192809224863362,0.066840931215878,0.037207162771177,0.1155456687248071
95,950,0.0044618248060038,-0.0555418986736455,-0.0090849650411149,-0.035590086981393,0.1493835432040058,0.4109118987083264,10.399720935896552,0.0824787187473671,0.0601497540875518,0.1576256418890398
96,960,0.0213237503359363,-0.0550492402938921,0.0113001796279091,-0.0370554141740038,0.2859500568783349,0.3153552075379972,10.07939569395057,0.0613587959030963,0.0441090988919565,0.1488991889156324
97,970,0.0108879375407428,-0.0423422889746063,0.0258236215541929,-0.0462824041793294,0.2437356220042345,0.4948769814578619,10.40359191665697,0.1022056471373869,0.0611689780943024,0.0973108538689725
98,980,0.0113228302513131,-0.0277297368855996,0.0011050173787554,-0.0495253043951683,0.3990137095347545,0.4755458423933982,10.339833580720176,0.0568751952601578,0.0272488217048893,0.1602548596466855
99,990,0.018569473887431,-0.0458518978342707,0.030572058192085,-0.0516248855234136,0.3411949057890724,0.6419150580920798,10.414819803941336,0.0853642353561609,0.0260945054963443,0.1575883021940913
100,1000,0.0277052957986271,-0.0439091583321977,0.0259788830785241,-0.0331338862700487,0.1949988866942736,0.2670665250707434,10.356219205795208,0.0581975121515557,0.0465485957177087,0.2025111446349687
101,1010,0.0267163430149939,-0.0424223579468898,0.0108143204002922,-0.0171502608970679,0.3589257297651697,0.3069875952556811,9.92019781157889,0.0862015440981676,0.0436808842700113,0.189788732833242
102,1020,0.0296885212344205,-0.0383168619000958,0.0147672419993001,-0.0163807279819973,0.114572303954187,0.3164710697611198,10.01722447512734,0.0838837267053592,0.068946588562257,0.1411032342228887
103,1030,0.0114823206642688,-0.0493615052885039,0.0129481335758762,-0.0364520671235925,0.2287447922178111,0.6235520583393173,10.291672930552608,0.0725452087499443,0.0499901497615359,0.0965278445966698
104,1040,0.0159793078743757,-0.0354932640392982,0.0280710612746305,-0.044591389895913,0.0694114680976885,0.509086803117101,10.322554480365616,0.1070236269123655,0.0515599550706214,0.1977150019114363
105,1050,0.0195237026556651,-0.043271764449013,0.0103799281338014,-0.0335431526559032,0.2458123013229314,0.4235198766510855,10.0813352546767,0.0422917090278374,0.0560028141978303,0.131359844633583
106,1060,0.0336414289400659,-0.024473107684928,0.0284708670203801,-0.0160840322293412,0.0858781666269231,0.2671168966709649,10.028432060336147,0.0503977892509094,0.0494944143062284,0.1380588352224578
107,1070,0.0315154799411012,-0.0271842660227685,0.0216721698697789,-0.0078682949866705,0.3803328542795618,0.4068240227640448,10.142112269632308,0.0882928169353472,0.0492822876185116,0.1782244208653353
108,1080,0.0184405810448824,-0.0212072361473633,0.0472820079157815,-0.0169364606902863,0.3333591887734179,0.5895008684692247,10.021629853623246,0.0359885508545045,0.0647907912259381,0.1655224890473107
109,1090,0.0216342847090467,-0.0153971468766793,0.0255829312915763,-0.0479160566140579,0.2136053833168132,0.4475652371174095,9.81657974089553,0.048422726132606,0.0548881460987435,0.1653949643944
110,1100,0.0100954662143389,-0.030306068884806,0.0116203294537488,-0.0010499425062722,0.3034991610909059,0.6678823747160176,9.94545919302541,0.0678600304481755,0.0382701141185573,0.1375660583305256
111,1110,0.0311960863769643,-0.0108984194317816,0.0220623947034287,-0.0164433571683841,0.2022893775762386,0.5340069312223752,10.079084027366934,0.081127098403031,0.047882560100481,0.1389802771646288
112,1120,0.0515298461689897,-0.0157128451457283,0.0200769236217035,-0.0074161295892193,0.3439025053358551,0.6132980867323433,10.203427506639608,0.0543364098565975,0.0247737656392536,0.1693119235354113
113,1130,0.0350977798404901,-0.0307648092838411,0.0355016861984131,-0.0101917610463625,0.296958063638883,0.4358649984937787,9.84838491521142,0.0732531387208259,0.0458336023993779,0.1362824217648065
114,1140,0.0595263162510908,-0.0099252209958575,0.0394732645066318,-0.0014050886037358,0.3715205329322149,0.435992390402078,9.901142268072803,0.0156804902594454,0.0584371161319171,0.1843642208577756
115,1150,0.0356203349392804,-0.0221171698789678,0.0543750237182377,-0.023722696455396,0.3216199404694118,0.3479165158314007,9.524055650468425,0.0619857160921723,0.060691750797559,0.1491028209618582
116,1160,0.0482945371667615,-0.0255484461973733,0.0358886957718861,0.0096562758223647,0.3700484806390625,0.4000468617541922,10.07537263788046,0.0690872707070148,0.0426469481926622,0.1673325348420072
117,1170,0.0106370951920188,-0.0422858836485531,0.0217852605221111,-0.0177052787962903,0.1679817459635154,0.2273077314413042,10.162497824094286,0.0382747265468486,0.0219482530545522,0.1217897531715131
118,1180,0.0239703028646052,-0.0221180472140238,0.0311951653127413,-0.0030026864240635,0.4337323217717291,0.7518070526852958,10.15582918507253,0.0775149383133895,0.0465403531531901,0.1255710983468237
119,1190,0.0361249234402689,-0.007659194953744,0.0296053057280934,-0.0015656401079246,0.1504652651589502,0.4820441521092132,9.910553538861352,0.0611475242334522,0.0492651008530151,0.1250435245877914
120,1200,0.054466910271995,-0.008177572795084,0.0403382325264359,0.0033194205662347,0.2799705175667517,0.3437337220949581,10.25143951959729,0.061751841029452,0.0545486599904575,0.0755158631651395
121,1210,0.0576209803192874,-0.0197226075217474,0.0342964845877208,-0.0019487494710575,0.353658600583539,0.5281789256498046,10.02481756571584,0.0499957650827865,0.0347110955376916,0.1166614261449531
122,1220,0.0351083944351176,-0.0118697012845575,0.0258305853046867,-0.0041626906719904,0.1977215098350617,0.5033038278848015,9.856740230196396,0.0124393683188133,0.044025202358131,0.1423092637351909
123,1230,0.0389431902662084,-0.0083197804840568,0.0247622699367412,-0.0050427830175559,0.2151856334032319,0.5567442675134947,9.989234023057383,0.0761286146004163,0.0601023851579599,0.1067442914987363
124,1240,0.0499411136133812,-0.0219216856328029,0.0486208779497759,0.0088788249441343,0.3755015252589685,0.4255598941433827,10.109185772853689,0.0552030569982961,0.0360882952326888,0.0978472023288222
125,1250,0.04429380510598,-0.0056827511982238,0.0330342768809251,0.0119474746848472,0.2939763423789723,0.5327697447423564,10.241780489455058,0.064003492988659,0.057930347498056,0.1083016201639011
126,1260,0.0471256300320537,-0.0041537118900156,0.0506799887644451,0.0138176996841816,0.2420737885795182,0.5003334451570437,9.721521372848096,0.0765584839055503,0.0325603175643232,0.1363018102001016
127,1270,0.0593007707296896,-0.0140069300721172,0.0517798340047586,0.0102802171172757,0.3442221374389013,0.3614911109622418,9.973506981999398,0.0184969823822747,0.0546542359470176,0.1714919466962834
128,1280,0.0448962764958662,-0.0077742911897372,0.0554725686456186,0.002623038696653,0.2464879544932628,0.4301182637460912,9.851380433360571,0.0226589223267439,0.0399011730861825,0.1464655609116282
129,1290,0.0760105934525569,-0.0066529139345773,0.0455293983424971,0.0018231799622599,0.402990578981459,0.4484943493450603,9.740991763711202,0.0012377757226516,0.0279813221633417,0.1606210455615464
130,1300,0.0678430861246981,-0.0008174179164687,0.0213192404950595,-0.0010918409115113,0.1389530357584699,0.4905120014732843,10.20372306281663,0.0361092408582349,0.0340300896345314,0.1593654798881648
131,1310,0.0434122874561769,-0.0178152678556688,0.0233680275354724,-0.0096920799661116,0.5173451083105438,0.5158855440392612,9.852266299032369,0.0377868484043663,0.0335527906717861,0.1172748777540786
132,1320,0.0273083326961986,-0.0137160421074243,0.0369888246533822,-0.0170336984982929,0.3102467362141028,0.5785499909831776,9.678055874000908,0.036945187532332,0.0373370401335708,0.151769563233369
133,1330,0.0383356036616289,-0.0045283849002894,0.038320611855584,0.0004597871173247,0.0666561455163069,0.5371200793185313,10.24725953401499,0.0566168634704854,0.0491010000571964,0.1165172391890002
134,1340,0.0470523913892181,-0.0274766080503815,0.0355149882445924,-0.0038343480178623,0.209893810732493,0.4585225807394736,9.844262822543358,0.0061609184913443,0.0327791243529271,0.1628768610607586
135,1350,0.0403653874958529,-0.0244525249733116,0.0372711299695948,-0.0257888051416685,0.212959830175745,0.4216147780372065,9.704467275101052,-0.0056169886490517,0.0566986787446174,0.1410870469435305
136,1360,0.0466302271857747,-0.0088244101597223,0.0414107999499281,0.0117037582527726,0.3010790142920049,0.4570201355762445,9.791383775413442,-0.0108576381225814,0.0421947401070127,0.1247422681621562
137,1370,0.0422861683209392,0.0122751865885386,0.040058959935255,-0.0024849435281909,0.2402151889319101,0.5862204647656466,9.997055799097051,0.0055442481359122,0.0452002866446065,0.1316917029967325
138,1380,0.0321571120471206,-0.0147162439749244,0.0288218196034475,-0.010402740233366,0.2796499453065661,0.5540175513162681,9.73648293511917,0.0247014526082944,0.0430785631573893,0.1317688917782279
139,1390,0.0329754441082244,-0.0117979411756993,0.0604540117379389,-0.0046616087383658,0.3339887546050865,0.3874474440202572,10.08845475903468,0.0433212823473915,0.0247081734585565,0.1745244782227855
140,1400,0.0412693815797636,-0.0245929395614659,0.0442557873550731,-0.0116213645794643,0.458017891926606,0.633884943567963,9.65281597061232,0.0399684162025636,0.0469897666873891,0.1545412386858725
141,1410,0.0498127758105442,-0.0144370761444613,0.0216188643289062,-0.0056602371256691,0.323600942942893,0.2982581617762946,9.883963024715142,0.0247277067583056,0.0231384743426974,0.1598906653688239
142,1420,0.02777650106251,-0.0269846988048227,0.033574296347606,-0.0050529106030311,0.1496864443466766,0.4327445705526149,9.452993821650365,-0.0199789870824558,0.0439170933157848,0.1743652565956418
143,1430,0.029505582890292,-0.002038328403026,0.0483000148239671,-0.0039636203838786,0.1908394144848681,0.4517703398691957,10.132399427901325,0.029691895797221,0.0547437982381089,0.1424044833029453
144,1440,0.0798603872427259,-0.0009483691349765,0.0519156057666754,-0.0151995101318675,0.0567735415968352,0.5575527482018866,9.82956126006975,-0.0175555545296193,0.0324663313922829,0.161383056492682
145,1450,0.0388512421136944,-0.0189957657681432,0.02157082989593,-0.0138569009567401,0.3056782192441777,0.4128852661140383,9.61973737848022,-0.0028480416782122,0.0453278665355165,0.1281681287868402
146,1460,0.0290857781039802,-0.015452151463426,0.0268799415541864,-0.0167439574349546,0.2639259203962052,0.4164724430524066,9.821290861823318,-0.0036774418375465,0.0501860987748207,0.1529388493882689
147,1470,0.0245367673730133,-0.0080681725038507,0.0214999819686127,-0.0116502814445439,0.1533334703511797,0.4330863167111946,10.211973619312698,0.0098989829788487,0.0425001020778004,0.1129178913559218
148,1480,0.0267159642367835,-0.0224658847342228,0.0236278043415525,-0.0014026423209387,0.3896597584003785,0.5037678939986664,9.894610737430256,0.0353447280510069,0.0363178646900759,0.1889152340007838
149,1490,0.0619421120210941,-0.0059132120146113,0.032268249226224,-0.012871431945903,0.3350830970372274,0.568332966238601,9.747402594345456,0.0155203552183049,0.0423478957873811,0.1136018914712281
150,1500,0.0328050709701235,-0.0356017231113633,0.0183530545490203,-0.0225290046484583,0.3374783733597686,0.3815344501426709,9.849579147677082,0.0003376423065669,0.0387784401080985,0.1409440403183277
151,1510,0.0321249167195058,-0.0218593397414591,0.0134974993004524,-0.0065099190798112,0.1605352289371379,0.4502392278368968,9.847746787141222,0.0168199094575232,0.0345892730544377,0.1404540974534781
152,1520,0.0399154511337919,-0.0090824592625136,0.041688631751251,-0.0203151032837192,0.2821011312946594,0.4715841778275813,10.236170725445472,0.0063289220267839,0.0099294800447072,0.128494848537527
153,1530,0.0285678148434334,-0.0182572569350203,0.0157722534755949,-0.0204993829563467,0.3341865162108762,0.5490638852173786,9.974475101243408,0.0468010744402728,0.0401987654880471,0.1232762718026744
154,1540,0.0310907565191511,-0.0165072368928379,0.0361181231793152,-0.0005624687264803,0.1597536100147213,0.6109594695161877,9.711576215714452,0.011663861765237,0.0269033175460426,0.1911132713242599
155,1550,0.0375255613210059,-0.0148184712544585,0.0469535391205052,-0.0043629573502455,0.2408955596976443,0.3871864692212026,10.012612487159068,0.0163939476249978,0.0402945603020523,0.1158286984502406
156,1560,0.048618989084508,0.0031199293264418,0.0272719876633706,-0.0164276331447706,0.2896064662683863,0.3911455732063969,9.893947308095964,0.0014898817726439,0.0345977118422302,0.1420686881803882
157,1570,0.0383865306883567,-0.0011035785988511,0.0370135069077134,0.0065296445402035,0.1847845811319506,0.4279112017876257,9.633002697370271,0.0120226817126583,0.0348543635289745,0.1283084747558265
158,1580,0.0679976198425262,-0.0048861195633294,0.0517505975791689,0.006681161071793,0.0088356445847678,0.5878584260636632,9.67022320010937,0.0397490148631333,0.0380065703497498,0.1348499769909766
159,1590,0.0386048726759159,-0.0146591191053196,0.0525385103186027,-0.00841461231964,0.3530758217214408,0.3396665298674308,9.838782441474208,0.0116153247388347,0.0335772011189035,0.2216824106894973
160,1600,0.0517851090196176,-0.0016835107939053,0.0463943186485355,0.0004509230972198,0.360617205988497,0.3792668184586567,9.983876670188687,-0.0026848982906361,0.0535626794417571,0.1375201517696026
161,1610,0.048157437003375,0.0007540313274899,0.0448387198795351,-0.0111525247756813,0.2832515348842602,0.3195704231758711,9.53206889013379,0.037937353735502,0.0412232649130722,0.1516603516815566
162,1620,0.0391010189829542,-0.0191368486569852,0.0278330830382974,-0.0025131046482336,0.3182187329989172,0.5384082245162745,10.084947187026106,-0.0176045804235034,0.033676738487245,0.1378534575880929
163,1630,0.0364372993052603,-0.0116259904385115,0.0421182508477275,-0.0080284430513781,0.2022322233078184,0.6013600443517805,10.039715501980004,-0.0137706083198401,0.036340677234928,0.1531096266748746
164,1640,0.0729825554412798,0.005598535752465,0.0541946009891179,-0.0102177060914746,0.1862492522141514,0.3974877836148666,9.445211989579857,-0.0214488020048735,0.0445731350508095,0.161608383890961
165,1650,0.0492264703922727,-0.0013316108562208,0.0582526063056781,0.0044688099512235,0.096687179047393,0.5830051794596371,9.89460502156475,-0.0327341311660643,0.0361033156922168,0.1723246022502979
166,1660,0.0596485717019153,-0.0052482178482445,0.0516292557694114,0.0052138647225301,0.4509296566661211,0.44867691487761,9.602569478737196,-0.0078484695464035,0.0401767083428158,0.1689844657372824
167,1670,0.0474624456479324,-0.0124067411988713,0.0465849421956358,-0.0036099109878534,0.1750259836931376,0.4911558107119505,9.675959231684054,0.0011771373591223,0.0140152479308182,0.1372773074749342
168,1680,0.0487862269078265,-0.0050063541604538,0.0409206829936664,-0.0044117210311572,0.1990064806806167,0.4541311314560113,9.895362208991154,0.0026348238140129,0.0404487855098209,0.1233102595521484
169,1690,0.0628944601036423,0.0005748412888379,0.0369179120193059,-0.0141108524828281,0.1078893371402043,0.4049193526934688,9.70692508202226,-0.0249094430470844,0.037413760887265,0.1954950335728693
170,1700,0.0633870068476221,0.0172801348154801,0.0582732605109845,0.0067358404310684,0.1501321045141538,0.5353169400772025,9.74846157412617,-0.0463429491439419,0.0358216330752627,0.1093397829627186
171,1710,0.0564526886996106,0.0096767544781315,0.0484535678238482,0.0020399766010052,0.1717161115907904,0.502838342433428,9.915424124399165,-0.0198110237818213,0.0235052035162258,0.1170199742194657
172,1720,0.0502760890429334,-0.0159498243954022,0.0491637530197733,0.0099191869575403,0.3465768237258999,0.5132154395343483,9.216163823510788,-0.0437589058418463,0.0340955212088296,0.1603930654989862
173,1730,0.0674761172587857,0.0046427352132168,0.0532736511359675,0.0038316819854209,0.1865703873421597,0.6118538437276866,9.492620834724391,-0.0084923991931037,0.0356083726072973,0.1341586494381079
174,1740,0.0543950905302111,-0.0027170252078503,0.0567465667403284,0.013651121003526,-0.0389012266265085,0.6500359645954099,9.418194540296588,-0.0169665001254884,0.0325667226201892,0.1456843845575993
175,1750,0.0627352423306704,-0.0040888304651657,0.0665097401505754,0.0149529996670192,0.0208040647907404,0.4065751139830607,9.853503937647076,-0.0381391986477329,0.0144687975752729,0.1709626976624187
176,1760,0.0506934142320426,-0.0110588711111262,0.0544743917344274,0.0069568560160916,0.3796487448974777,0.547717646613255,9.804207877490477,-0.031569616105386,0.0250727580739608,0.1451961740434386
177,1770,0.0554984012189768,-0.0119869296367252,0.0540194065101791,-0.0227433287635604,0.0842293662116979,0.4700055191918847,9.571137390178963,-0.0381507925413771,0.0207143659090731,0.1555975148101712
178,1780,0.0564220429011455,-0.0117027365187551,0.0333245896861192,-0.0035231230225964,0.1416837374141178,0.5764350563977425,9.489341418876954,-0.0415061092508387,0.0419166656567653,0.1698553275904581
179,1790,0.0347216011912214,0.0108852777793033,0.0517367467711825,-0.0146474525451248,0.292621408379036,0.4929220421384401,9.618808591562528,-0.0574842914445331,0.0386308416587384,0.1640641409325275
180,1800,0.0553850150658387,-0.0007154980739784,0.0612109006807706,0.0169606645982055,0.1090890902312046,0.5996513137083118,9.810582404387278,-0.0076610837189691,0.0307228615536317,0.1545623056167958
181,1810,0.0562358518029746,0.01224677090613,0.0723983975920157,0.0147304878230166,0.1268967409669922,0.4872731618179451,9.641015673063174,0.0264297631556742,0.0362862453142079,0.1162601299236461
182,1820,0.0507420224893894,-0.0036544488205323,0.0414560822963727,-0.0161240699909252,0.1611804347941475,0.4761548413960867,9.626434674591446,-0.018641960165236,0.0308800116230079,0.1592155629908805
183,1830,0.0526722632379937,-0.0125849876738405,0.0409767113354288,0.0026282580047556,0.0205564037145541,0.5406802252703439,9.717036056652336,-0.0597451810079056,0.0339061350692201,0.1745229395528313
184,1840,0.0340182033509174,-0.0151803252363472,0.0303379582945663,-0.0093942654453707,0.2039374536724744,0.3489854837397065,9.623117597676089,-0.0207028920884167,0.0172382451516276,0.133401986406672
185,1850,0.0386064820154053,-0.0333119784520761,0.032307077199845,-0.0052599766069529,0.1200583504781728,0.6371430322194686,9.813578370174117,-0.0283440559901019,0.0338578178831174,0.1034816481742091
186,1860,0.0236605533901503,-0.0325201984433457,0.0246262535523928,0.0003795559138913,0.1312743108570817,0.4282267508366382,9.813476811360836,-0.0578204477671487,0.0163193661971508,0.1317136994205353
187,1870,0.0204622613588831,-0.0319359560506099,0.0085532289640474,-0.0309660117058585,0.0898147420476155,0.4823459161734034,9.991138268782686,-0.0558664397021437,0.0321391247326439,0.1375507746546345
188,1880,0.0471840608787572,-0.0181058755511451,0.0387824926173501,-0.0192717976111134,0.1115585132961509,0.5267180081389673,9.445523627246706,-0.0205639667643455,0.0118026805064584,0.1900078225861736
189,1890,0.0407361354406789,-0.0219966015993919,0.0230727086900346,-0.0063750051505132,0.255827464614456,0.3301376554394443,9.496708318754916,-0.0163693141404371,0.0139673875443028,0.064926805819554
190,1900,0.0369765041548085,-0.019710762790569,0.0453222249354532,-0.0063634149036378,0.0303715926439398,0.3175636932698804,9.60813451218272,-0.0191578084950788,0.0208022434385345,0.1334719682340493
191,1910,0.0259622794568316,-0.0046051854050178,0.0407001208615839,-0.0182489730796755,0.3311590774338458,0.5650348674064275,9.393525343977872,-0.0368547567380026,0.0304790053628246,0.1972900041629547
192,1920,0.0321587486424972,-0.028191884670482,0.0308343171436842,-0.0117530732337845,0.059775092256561,0.539203997709091,9.7556122786434,-0.0573546949380358,0.023499049090214,0.1752022551856251
193,1930,0.0346853378953953,-0.026193010229112,0.0339561426863072,-0.0085913606989033,0.3105731743786492,0.4545654281034136,9.427868100822892,-0.0446774277810704,-0.0020842152927997,0.1082095123315235
194,1940,0.0398924050178749,-0.0227252914451243,0.0148152790196458,-0.0305597040377969,0.2016866389379398,0.4343312584341092,9.657494420308106,-0.0376835591931922,0.0281604963126722,0.1772253605851984
195,1950,0.027632117059271,-0.016248679512683,0.0228915055544533,-0.0100296659806019,0.1724934978824392,0.527916552057025,9.689908443769026,-0.0310815179610471,0.0349940089610128,0.1319124973208291
196,1960,0.0240582990336017,-0.0306809336830373,0.0182658554476504,-0.019216003942669,0.0665646209786696,0.5421534060222445,9.269079362531308,-0.034734110382181,0.0192822242175607,0.1433815372158742
197,1970,0.0316762844213718,-0.039929573282408,0.0175365262892043,-0.0169560112808152,0.1220172549063405,0.3420259600074487,9.566572138253298,-0.0725931936220344,0.0263473318562446,0.1265744293774253
198,1980,0.0281323138313726,-0.0341466551954814,0.0121571218522089,-0.0233468934787232,0.2236133869882368,0.4265668685778242,9.249612444871811,-0.0295587791259674,0.0113510390570396,0.1563519069251643
199,1990,0.0114180024808544,-0.0377508291371778,-0.0064360169579993,-0.0307905093501658,0.162369043948956,0.5873308835576201,9.518837595603069,-0.0716462070213923,0.0202407494721829,0.1188438535900629
200,2000,0.0095070156011591,-0.0371954316715157,0.015140664456924,-0.0426173812827195,0.2070711460153819,0.2851345854283804,9.417015503666722,-0.061979171031961,0.0137795297491061,0.1187500585333762
201,2010,0.0267069350092805,-0.0486458081186739,0.0348229988254797,-0.0368466798464374,0.0082705470101653,0.5103780713557722,9.326755358945146,-0.0432103879268999,0.0124667163826875,0.1557168590469103
202,2020,0.0215074285921487,-0.0222915670109904,0.0193240995361887,-0.025415720000041,0.1365999208324458,0.6605478726935943,9.872326909619144,-0.0657592718674706,0.0009284295203678,0.1431326899817593
203,2030,0.0303988748122483,-0.0439553703835667,0.0128111544125951,-0.0354577110528706,0.0097751919752202,0.4386202020349094,9.525465592391969,-0.0427958035016167,0.0145236407933711,0.1520852766584993
204,2040,0.0255820009763255,-0.0246023503624936,0.0092167920646274,-0.0067231656926265,0.178052396614474,0.5657758535443534,9.587368486624952,-0.0556344964813364,0.0117664136064665,0.1203934047003754
205,2050,0.0253243782948992,-0.0321245163989816,0.0189933358653885,-0.0414758021995597,-0.10529655671392,0.5856728829810257,9.517300112852473,-0.0775358756294488,0.0263747782714155,0.1721394505843127
206,2060,0.0278827806817393,-0.03458636084943,0.0034230720628944,-0.0493473434283634,-0.0238679722625854,0.4139525631436837,9.433310614273802,-0.0627111825228105,0.0094009095023628,0.1969060668246456
207,2070,0.0068631011831346,-0.0404618465064008,0.0086236601587769,-0.0083109520874883,0.2733359652861966,0.4213505912561405,9.521296911109324,-0.0864651841612473,0.0239167270643817,0.1860017489961564
208,2080,0.0308198227175141,-0.032684237621897,0.0223659846079491,-0.0251319616020889,0.0869687975693407,0.5254810226696769,9.62056076276909,-0.061987220573195,0.0170978206714798,0.1401917601703024
209,2090,0.0466082490321249,-0.0182032045865988,0.0224559282907437,-0.0279129139514128,0.1635791703811107,0.3974122270543898,9.469010781284318,-0.0409809240559744,0.0208456527828172,0.1784283814576419
210,2100,0.0260938441971565,-0.0295953122438397,0.0317786069695928,-0.0283656529499706,-0.0457513902337372,0.5455003138325016,9.347441122720385,-0.0726848554025416,0.0302357341875169,0.1196927657146072
211,2110,0.0202046931038359,-0.0263124814508093,0.0261026728383821,-0.0120888105643873,0.056425370347729,0.2767976172827431,9.375010251380536,-0.0741849348620534,0.0077019320577936,0.1504365355937003
212,2120,0.0229269627697109,-0.0401258728545805,0.0060491137981496,-0.0259359928539446,0.1086701623797558,0.4116235538427823,9.08173167950941,-0.059235082348125,0.0089840598481007,0.1452982824952102
213,2130,0.0176340518365452,-0.0271500095984155,0.0225962911660493,-0.0181834365865878,-0.0190466218728628,0.4894799798773699,10.072796709756757,-0.067338218569254,0.0199720007294905,0.1670487247844768
214,2140,0.0484361973929637,-0.0225781769591944,0.011714331235793,0.0030257114276073,0.0954742288540735,0.5813223686525237,9.776115823053546,-0.06750671080537,0.0012151221555651,0.2058731423487736
215,2150,0.0323679199482085,-0.0206907833206944,0.0390107030655968,-0.0235597415501652,0.0353709732032599,0.3286626348040461,9.639859803698949,-0.0514157909590118,0.0254584429274715,0.1868989800086661
216,2160,0.0273592533170287,-0.034474091353178,0.02365575852469,-0.0230178835310444,-0.1577877754264535,0.4295135857628422,9.76630394729066,-0.0321552094154074,0.0052275376775613,0.1442006730012883
217,2170,0.0397407481623279,-0.0023240803111608,0.016905611139509,-0.01703131297432,-0.0202914439426358,0.506701303662656,9.260794674328515,-0.0755502447362412,0.0056237388867755,0.2101973522673635
218,2180,0.026207905134963,-0.0174962867849722,0.0264493478672906,-0.0120667592136997,0.1519261975578648,0.4675755807806583,9.523348198081974,-0.0567379126055904,0.0166523617064365,0.1856724027983233
219,2190,0.0473704533959761,-0.0276016249807242,0.0235735980865951,-0.0376516696686855,-0.0653264484093115,0.552272159335638,9.215953125470596,-0.0440736161336048,0.0042587705136503,0.1560943330486825
220,2200,0.023467494381009,-0.0434524470906383,0.0069408277555417,-0.0004505148727611,0.0179826857600003,0.4192900577383914,9.512477073357134,-0.0556767959689897,0.0079822310129847,0.0999998531383224
221,2210,0.0347921253578578,-0.0480534149723359,0.0371759984626056,-0.0126118276437767,-0.1021300738612324,0.3337221290466574,9.415541029680591,-0.073053888817238,0.0027061091099845,0.1120039610180961
222,2220,0.0358834069709322,-0.0136220919232008,0.0212809513183196,-0.0050317736811771,-0.0011972656457514,0.5406828912134166,9.45552702496548,-0.0765846893462392,0.0172223952740428,0.1343363359753745
223,2230,0.039939151048393,-0.0250382672229147,0.0379073202504473,0.0031484018086203,0.0284685127066669,0.4178201601068072,9.3184710166584,-0.0759749069015512,-0.0211884970522713,0.1995020591461344
224,2240,0.0251075895820201,-0.0119960616855048,0.0304155001858394,-0.0062417882380359,-0.1657175443490169,0.3061010560999238,9.418255585523994,-0.0566871833772508,0.0014562843135432,0.1456948388612917
225,2250,0.0133110364221765,-0.017780223915922,0.0402606703890966,-0.0495803052519069,-0.0094882726926496,0.4511620349694034,9.350018332486856,-0.0768119526822572,0.0058617975228489,0.1072251967318025
226,2260,0.0144483151817996,-0.0302439488277877,0.0152864373129807,-0.0049970125576912,-0.1226456810396184,0.5216250744416562,9.196731003997677,-0.0746379931057736,0.0252529259607954,0.1102058390273835
227,2270,0.0406845464203389,-0.02002009454285,0.0159865636940825,-0.0313298250596234,-0.1943458309720926,0.4214239826855078,9.248461423970054,-0.0868240898296106,-0.0004222600769756,0.0819270990574018
228,2280,0.0317906454719895,-0.0311797938177618,0.0253936093050605,-0.0208338973372041,0.067350016799668,0.313992293315888,9.268018273046415,-0.0947827077217883,0.014686889953179,0.1629915250569804
229,2290,0.0283278713314768,-0.0465527147880479,0.0173662047468341,-0.0162275110637997,-0.004974585971295,0.4364815658573947,9.439905738329452,-0.0643426556522001,0.0083294877811185,0.1643459081106251
230,2300,0.0271342531780123,-0.0324196969059466,0.0147319767431169,-0.0195102537767507,0.0188598978802918,0.3798099653759034,9.23475503415489,-0.081554619853089,-0.0028778299768242,0.1785216436768786
231,2310,0.0030602869537751,-0.0610593282858392,0.0156612872054502,-0.031865533457336,-0.1128700041397941,0.4351247741467786,9.465388796076969,-0.0536033076342531,0.0100971589750493,0.1310221375258159
232,2320,0.0193141827393026,-0.0527116441109505,0.0140502560883371,-0.0314961440954706,-0.0109115602345924,0.5555645014372433,9.482029769291232,-0.070343291643244,-0.0050960084796808,0.1385454030038008
233,2330,-0.0018728860356629,-0.0555053531491323,0.0047134277909193,-0.0369558231410079,0.199814139442454,0.3599161494852917,9.478172504196676,-0.0961668597800785,0.0084223027593527,0.1313338507461754
234,2340,-0.0069034127676842,-0.0555856237663856,-0.0069713037149255,-0.0284145460742383,-0.049012700201529,0.3795824547614327,9.328784814271447,-0.0931327608640289,0.0124364675545169,0.1212726792138001
235,2350,0.0186469934802283,-0.0289685190081305,-0.0081868617411191,-0.0261954508237349,0.1467899654386445,0.6832632607275082,9.162476863256774,-0.0734596763074191,0.014257644611045,0.0979646693561048
236,2360,0.0045255259330981,-0.0625495383103863,-0.0202755657376649,-0.0354706409822904,0.0770576112363375,0.5600795770801175,9.005851393301652,-0.0655067748586208,-0.0005671297136182,0.1318276713731376
237,2370,0.0277210160307618,-0.0516562538100258,0.0059873600301359,-0.0402022031461474,0.0647949009282341,0.3311503134618686,9.173081590030622,-0.0374238749512955,0.0106235624507616,0.1353361222046625
238,2380,0.0132668984006791,-0.0674868960520021,-0.0107303762876562,-0.0552480801944896,0.1870248695910482,0.3341135407767641,9.815897587030872,-0.1405559802522717,0.0013707726512583,0.1584139334093551
239,2390,0.0268301891081092,-0.0267536350888599,0.0021627815286479,-0.0277736383684129,0.0259354397075152,0.1963009306227284,9.589647802860966,-0.0990414391348537,-0.0105856188422705,0.0792606912806022
240,2400,0.0066375021666081,-0.0473060951925272,0.0056104278306687,-0.0150222743128814,0.0807641927150428,0.3312704659252832,9.504157724173748,-0.0805951734397406,-0.0019932321482151,0.1439015024459669
241,2410,0.0017975554705393,-0.049251946314856,0.0017455139556618,-0.0323538092863756,0.0087174649875023,0.5188433469892342,9.42133925522248,-0.0865029160692491,0.0012297053288294,0.1541610217677516
242,2420,0.0121434787640069,-0.038375463537218,-0.0014491998845605,-0.031794207147708,0.0067790010627377,0.4440982960119006,9.413692224983375,-0.0566323931216037,-0.0140215535592862,0.1335450106790324
243,2430,-0.0092221538507892,-0.0493930443991996,-0.0021727357925348,-0.0522766314455758,-0.0015364840755624,0.4835074745515655,9.62852397040201,-0.1023914530357785,0.0056866958519942,0.1539267427038318
244,2440,0.0023202369600025,-0.0503998873903511,-0.0078186086522665,-0.0590351364965975,-0.1138844800563951,0.3233098814931628,9.423379588181003,-0.060889915891889,-0.0137133569514009,0.0805527793267174
245,2450,-0.0051852361302046,-0.0646179450294216,-0.0234035112165826,-0.0440730361782316,0.0193733956761234,0.3654631629351781,9.151137378352187,-0.0708474718899837,0.0004952771180051,0.1624944477032867
246,2460,-0.0090332389104702,-0.037088312438211,-0.0133248445370871,-0.0621848341061339,-0.1062742341505755,0.499997115267614,9.249340090887276,-0.1099970625589213,0.0082031400713267,0.1118080696410197
247,2470,0.0054088545431671,-0.048257414575993,-0.0059581797486878,-0.0630540338303477,0.0328860605234784,0.328347953264119,9.352199569025757,-0.0745952312251862,-0.0138721307519612,0.1281776110932602
248,2480,0.0149717090038354,-0.0524224918842627,-0.0230494926105976,-0.0488694618868315,-0.002585976381832,0.389201187553826,9.307599768429908,-0.0995616235506739,0.0101754143242532,0.0819961767226777
249,2490,-0.0212029920208578,-0.0597696749172494,-0.0195890232836181,-0.0378107464060476,0.0171313537697325,0.2839402611761781,9.617418604719267,-0.1120719024641616,-0.0009782707410907,0.1603822824382002
250,2500,-0.0098091864942481,-0.0617622310931942,-0.0302756141278813,-0.0713257536446498,-0.2059533720503098,0.4300849114253111,9.511770794153586,-0.1038528158150851,-0.0238500904847021,0.1241513706534445
251,2510,-0.0103503823058701,-0.0541689703804351,-0.0243064981548833,-0.0425036392598899,0.0080245037317236,0.4259133659108456,9.562734480975427,-0.1401074959982487,0.0105277884490822,0.1283258940989598
252,2520,-0.0088967853008362,-0.0697145368586216,-0.0195573710419762,-0.0678183824694,-0.2113262546345265,0.3977787772569389,9.500078447891555,-0.066054731563616,0.0101371340588716,0.1000455799930806
253,2530,-0.0059270085405045,-0.0500066637867124,0.0008174763017224,-0.0433256784483462,-0.0229178823897408,0.422062062616274,9.366977061133609,-0.0623629056014371,-0.0231943858550734,0.1355074502661812
254,2540,-0.0177861333162914,-0.0565155141072942,-0.0193216640403872,-0.043634270731181,-0.1025700536240068,0.3151356230387341,9.55886555632748,-0.0580875803353717,-0.0201764393465638,0.1402040606506747
255,2550,0.0115681598438629,-0.047475747378,-0.0231992966726421,-0.0751273246289391,-0.0025747957304699,0.304240110645911,9.30986561284486,-0.0953133645886075,-0.0116817807589319,0.1683488433398139
256,2560,0.0071416599693619,-0.0524905100191083,-0.0019154388357472,-0.0312838063384283,-0.1522018768569532,0.3813891507008991,9.02491861297522,-0.0875552743030437,0.001682898661317,0.137135953544515
257,2570,-0.0021261727723002,-0.0792959352371138,-0.0228567950284981,-0.0539211782197999,-0.0638235137949012,0.5764368291725076,8.938343473466759,-0.104175942118382,-0.0161384782316863,0.1112846115630418
258,2580,2.504082583227452e-05,-0.056341791803443,-0.0004212860839014,-0.0429439203184579,0.0604379451500406,0.4469100741346923,9.58972038493942,-0.1006793629256025,-0.010691348634405,0.1139544127725599
259,2590,0.0040292618668388,-0.0396517658909058,0.0104780266931742,-0.0262655117651378,0.0333458574184788,0.47641177362438,9.386581814255692,-0.0973152599837853,-0.0048570935488247,0.1216095489785364
260,2600,0.0116348639001373,-0.0505582740087472,-0.0228454589716504,-0.0384174286899355,-0.0942487860536351,0.2792600775376532,9.292602127715444,-0.0969647984191304,0.0022991245236338,0.2034157644893853
261,2610,0.0204296276300188,-0.0336477833841818,0.0007618575701553,-0.0352649572678616,-0.141291279004619,0.2136994709443775,9.490795068542363,-0.0908154351187246,-0.0063795379063783,0.140850092810009
262,2620,0.0151578752548177,-0.0467057750096839,0.0309396482049989,-0.0486091946132118,-0.107859781149224,0.4993969312338268,9.461339642122413,-0.1056664811361821,-0.0157895050299462,0.135444508720224
263,2630,0.013334798434463,-0.0527643776700009,-0.002086758658168,-0.0378635656409416,0.1541331436274873,0.2781329275483972,9.635197366805963,-0.1297781729767471,-0.0152297144887519,0.0525567716625584
264,2640,0.01219375383571,-0.0303109039413393,-0.0014247755753134,-0.033240985426745,-0.0948404770100727,0.3718039878120033,9.565348299305702,-0.0970026834134795,-0.0123692889805317,0.1157312896327115
265,2650,0.0048030956567205,-0.0395236002177924,0.0140045341302012,-0.0317981606874309,-0.0351168097554431,0.3614938896986532,9.392232141063594,-0.0865198654881887,-0.0151327396252988,0.0959764202220402
266,2660,0.0153998475021546,-0.0365125903864238,0.0017992585039828,-0.0194868082543969,-0.1509781432957475,0.2580855431413242,9.11401675032854,-0.090490358415856,-0.0127054748320325,0.1238576026589502
267,2670,0.0164733826809682,-0.0233758369944354,0.0238541916527657,-0.0126487331029258,-0.0022447931929581,0.4137025449076933,8.9734652006062,-0.0980506850143135,-0.0336685986695012,0.1114814552139019
268,2680,0.0035821355422459,-0.0333974751325949,0.0152131401183611,-0.040233206587707,-0.1020861701656848,0.3703423028691905,9.2775409261778,-0.0930727831267114,-0.0169343945569946,0.1342850942383696
269,2690,0.0180534972809466,-0.0408550067982809,-0.0041435109175663,-0.0332537370279124,-0.0216487522276394,0.3681051007428332,9.543658672860245,-0.1176105857356797,-0.000617379288793,0.0480016661191062
270,2700,0.0030820686312036,-0.0244503568087919,0.0227571339664776,-0.0316395312668505,-0.1061229378726536,0.3230304469824403,9.23951501182684,-0.0845191670658056,-0.0021836866290923,0.0807074512212934
271,2710,0.0004790037097154,-0.0132712829611419,0.0166535219705652,-0.0217632295810262,-0.0920596140974109,0.4967212914429767,9.337076391761547,-0.1133316010907488,-0.0029439659692393,0.0889525448786097
272,2720,-0.0069489813379015,-0.0378094337075594,0.0023719226679439,-0.0207076790331902,-0.0541126901952017,0.2087856757856511,9.600258192532795,-0.0806342351847221,0.0044770441097123,0.1009084106880822
273,2730,0.0317062460458033,-0.0303841071332506,0.0258973491934913,-0.0311819695010522,-0.0172741600716236,0.542429882286707,8.880771869438163,-0.1267300909797945,-0.0196865156124653,0.0728640505742812
274,2740,0.0170333420580478,-0.0449698356926372,0.0094581097729318,-0.0215956988500299,-0.12917902918982,0.4097650140842113,8.987053314732819,-0.0986455907548511,-0.0126498755297251,0.1699639584261069
275,2750,0.0120570791271293,-0.0395574316148622,0.0098344739322931,-0.0237038208615528,-0.025371991047269,0.437611052308069,9.07843733983307,-0.1054858034023141,-0.0151099434226479,0.0985138395275572
276,2760,0.0135056903717243,-0.0439549146045423,0.0093688234996872,-0.0257911379274,-0.011204347609213,0.2843263959750057,9.059834171269816,-0.1471666040687734,-0.019217853005901,0.1468853396020062
277,2770,0.0095625550660089,-0.0268990142112773,-0.0028153805920291,-0.0473141842934569,-0.1229220767075611,0.3240593398100815,9.209739665849122,-0.1069427543140637,-0.0190507871236002,0.1088919872393164
278,2780,0.0081716972724041,-0.052545949662115,-7.455324869987297e-05,-0.0179645291416412,0.0271812398455407,0.2793552679198089,9.251173452794497,-0.1355100655563676,-0.0198469412908583,0.1579086072747672
279,2790,-0.0011585677087832,-0.049381929087594,0.0038621293021778,-0.0211228352595657,-0.1465379562035785,0.364409829651692,9.564956418738564,-0.1143662179477635,-0.024920363232643,0.0862526641526167
280,2800,0.0189984502231225,-0.0445837663957956,-0.0098427867088732,-0.0347543577181864,-0.2621850908236426,0.4191145828100009,9.289995055684203,-0.0920799969630849,-0.0184405993225453,0.0516298292955652
281,2810,0.0044130883474178,-0.0545920994487344,0.0050589408037642,-0.0272981300647986,-0.3004061078551961,0.5440210675971138,9.105468987515396,-0.1058230666002594,-0.0276724813640553,0.1471732335869439
282,2820,0.0162251405622994,-0.0286386039272057,0.0055386037104438,-0.0276184916458651,-0.1121911303263104,0.443924978867333,9.399211418535774,-0.1107620185625093,-0.0206823512356535,0.0719648389808333
283,2830,0.0158149863643033,-0.0477703515957603,-0.0018727056795929,-0.0340796812402029,-0.0965147133061711,0.2282052433085637,9.231613743422438,-0.1110959367918249,-0.0305208550394414,0.0973169644389798
284,2840,-0.0115441335937411,-0.0569430238539914,0.0031174613626016,-0.0444146278315016,-0.1366987187742274,0.3076928131453765,9.234158417668343,-0.0986859660668828,-0.0106919714405271,0.1185038263566408
285,2850,-0.0026117405030589,-0.0446473268212342,0.0020211816650399,-0.0548785388966557,-0.195270526757271,0.2044310255025015,9.411388719251574,-0.1001278351548643,-0.0179252774228638,0.1282058838382944
286,2860,0.0029364438251666,-0.0389572078471537,-0.0006640846449431,-0.0521373374650258,0.0301194256997464,0.281896952096386,9.351473326591677,-0.0946819357924509,-0.0068245621931095,0.1214402659463985
287,2870,0.0121904857819072,-0.0405966630063463,-0.014971534624982,-0.0451209286440549,-0.2174725506124826,0.2192095379290333,9.269803645845338,-0.08625130118293,-0.0275363733832026,0.134490723444365
288,2880,0.0058483004595328,-0.0319637578299597,-0.0048047978103857,-0.0414473087030731,-0.0203394961386109,0.5239371849542811,9.148518020969544,-0.0718179131410304,-0.0308470903928436,0.0309869372381509
289,2890,-0.0107868099465678,-0.0399193624103881,-0.0024307006047854,-0.0351262615584068,-0.1071457609150025,0.4227186501919282,9.271379538741265,-0.1472054232368059,-0.0017280700144922,0.1553378754008631
290,2900,-0.0107868099465678,-0.0399193624103881,-0.0024307006047854,-0.0351262615584068,-0.1071457609150025,0.4227186501919282,9.271379538741265,-0.1472054232368059,-0.0017280700144922,0.1553378754008631
291,2910,-0.009376116514863895,-0.034435460801068254,-0.0016243904282314792,-0.031237638879432768,-0.1063406236754929,0.37775408128291665,9.342267496295134,-0.13660868037803425,-0.0018423899886906262,0.14399054313080967
292,2920,-0.007965423083159989,-0.028951559191748404,-0.0008180802516775582,-0.027349016200458737,-0.10553548643598333,0.33278951237390514,9.413155453849006,-0.1260119375192626,-0.0019567099628890524,0.13264321086075626
293,2930,-0.006554729651456084,-0.023467657582428556,-1.1770075123637268e-05,-0.023460393521484706,-0.10473034919647374,0.28782494346489357,9.484043411402876,-0.11541519466049095,-0.002071029937087479,0.12129587859070283
294,2940,-0.0051440362197521785,-0.01798375597310871,0.0007945401014302837,-0.019571770842510675,-0.10392521195696416,0.24286037455588202,9.554931368956748,-0.10481845180171931,-0.0021853499112859053,0.1099485463206494
295,2950,-0.003733342788048273,-0.012499854363788861,0.0016008502779842047,-0.01568314816353664,-0.10312007471745457,0.19789580564687048,9.625819326510618,-0.09422170894294765,-0.0022996698854843315,0.09860121405059598
296,2960,-0.0023226493563443685,-0.007015952754469014,0.0024071604545381257,-0.011794525484562609,-0.10231493747794498,0.1529312367378589,9.69670728406449,-0.083624966084176,-0.0024139898596827578,0.08725388178054255
297,2970,-0.0009119559246404622,-0.001532051145149163,0.0032134706310920466,-0.007905902805588578,-0.10150980023843541,0.1079666678288474,9.76759524161836,-0.07302822322540435,-0.002528309833881184,0.07590654951048913
298,2980,0.0004987375070634424,0.003951850464170681,0.004019780807645968,-0.004017280126614547,-0.10070466299892582,0.06300209891983582,9.83848319917223,-0.062431480366632694,-0.0026426298080796107,0.0645592172404357
299,2990,0.001909430938767347,0.009435752073490525,0.004826090984199888,-0.00012865744764051223,-0.09989952575941624,0.018037530010824254,9.9093711567261,-0.05183473750786104,-0.002756949782278037,0.053211884970382275
300,3000,0.0033201243704712533,0.014919653682810376,0.00563240116075381,0.003759965231333519,-0.09909438851990665,-0.02692703889818726,9.980259114279972,-0.04123799464908939,-0.002871269756476463,0.04186455270032885
301,3010,0.004730817802175158,0.020403555292130227,0.00643871133730773,0.00764858791030755,-0.09828925128039707,-0.07189160780719883,10.051147071833842,-0.030641251790317736,-0.00298558973067489,0.030517220430275424
302,3020,0.0061415112338790625,0.02588745690145007,0.007245021513861652,0.011537210589281581,-0.09748411404088748,-0.1168561767162104,10.122035029387714,-0.02004450893154608,-0.0030999097048733156,0.019169888160222
303,3030,0.007552204665582969,0.031371358510769914,0.008051331690415574,0.015425833268255612,-0.09667897680137791,-0.16182074562522197,10.192922986941584,-0.009447766072774422,-0.0032142296790717423,0.007822555890168587
304,3040,0.008962898097286875,0.03685526012008977,0.008857641866969494,0.019314455947229643,-0.09587383956186832,-0.20678531453423343,10.263810944495456,0.0011489767859972078,-0.0033285496532701685,-0.003524776379884853
305,3050,0.010373591528990778,0.042339161729409616,0.009663952043523414,0.023203078626203674,-0.09506870232235873,-0.251749883443245,10.334698902049325,0.011745719644768865,-0.0034428696274685948,-0.014872108649938293
306,3060,0.011784284960694684,0.04782306333872946,0.010470262220077336,0.027091701305177705,-0.09426356508284915,-0.2967144523522566,10.405586859603197,0.022342462503540522,-0.0035571896016670214,-0.026219440919991704
307,3070,0.01319497839239859,0.053306964948049304,0.011276572396631258,0.030980323984151736,-0.09345842784333956,-0.34167902126126815,10.476474817157067,0.03293920536231218,-0.0036715095758654472,-0.037566773190045116
308,3080,0.014605671824102493,0.05879086655736915,0.012082882573185178,0.034868946663125774,-0.09265329060382999,-0.3866435901702797,10.547362774710939,0.04353594822108384,-0.003785829550063874,-0.048914105460098556
309,3090,0.0160163652558064,0.064274768166689,0.0128891927497391,0.0387575693420998,-0.0918481533643204,-0.4316081590792913,10.618250732264809,0.0541326910798555,-0.0039001495242623,-0.060261437730152
310,3100,0.0160163652558064,0.064274768166689,0.0128891927497391,0.0387575693420998,-0.0918481533643204,-0.4316081590792913,10.618250732264809,0.0541326910798555,-0.0039001495242623,-0.060261437730152
311,3110,0.0101222321245673,0.0841699172912977,-0.0018248986111492,0.0559307794249228,0.0328379324765282,-0.2713415141441832,10.55070449268016,0.1004996429456663,-0.0022770742699153,-0.1010522472407779
312,3120,-0.043270418772612,0.0395575490742467,-0.0187535278489558,0.0210551068448018,-0.1249151483654593,-0.3879185839986755,10.341422242617137,0.106766589341948,0.0059734506409861,-0.0909422976075211
313,3130,-0.0319021396872836,0.0506429281273565,0.0097019972216947,0.0430384927405846,-0.1803683368532241,-0.1779423084423051,10.304382321109228,0.069378806379268,0.0059602611391517,-0.1231141129947023
314,3140,-0.0262685474963709,0.0786122662844102,-0.0258016639521991,0.0495544878429218,-0.1736151420749055,-0.3435079877143707,10.143941710020837,0.0995813759148802,-0.00690917866593,-0.1112898224733176
315,3150,-0.0186293434127643,0.044686691253981,-0.0125986531254373,0.037890156466321,-0.1775526547287807,-0.5559723630568769,10.426261856837662,0.0573429671463316,0.0028868020676375,-0.0844406122727914
316,3160,-0.0148313328807288,0.0652451737630967,-0.0223743783168417,0.0427017062037745,-0.1310563160171018,-0.342874721639687,10.091312695450537,0.0925639895945887,-0.0033898668666238,-0.1144278023759738
317,3170,-0.0217313280600553,0.0378798412206578,-0.0101983302070371,0.0420996255075014,0.0753370549004601,-0.3690851484133751,10.331481660368103,0.0846566660864789,-0.0118229356999137,-0.081233589100706
318,3180,-0.0367897643766272,0.0467654279691889,-0.0086943624282002,0.0325043645297614,-0.0469223866025606,-0.3344849354677259,9.900876296000192,0.051390278768152,0.0051331222005969,-0.1147696209320474
319,3190,-0.0198186097621562,0.0560352431074003,-0.0232623036694222,0.0293621191326817,0.0104960459855715,-0.4466675802113707,10.109604586694068,0.0723852112474691,-0.003344834006805,-0.0705918147046378
320,3200,-0.0404484163391435,0.0515510814125602,-0.0165203664367787,0.0049590781333967,-0.1080797334548497,-0.3152697593407358,10.64279357941034,0.110445578985741,-0.0108197863935318,-0.1178001176206462
321,3210,-0.0382018199869476,0.0673466428587165,-0.0008132615702586,0.030647176937689,0.0140608025635766,-0.2149386139021045,10.617958898280664,0.067358142353325,-0.014221680284024,-0.1311109786592255
322,3220,-0.0399188181325578,0.0358393585357734,-0.0315892760108052,0.0221741941278218,-0.0238271447777945,-0.3660812904153843,10.02063784575599,0.0829287917872983,-0.015386812459829,-0.1078092477921941
323,3230,-0.0173336331564409,0.0415483186236464,-0.0093050365865387,0.0398102853032949,-0.0987344524424074,-0.4211472416394269,10.05772634951081,0.0500403185730075,-0.0073202327259593,-0.0622288678924643
324,3240,-0.0268715251461331,0.0573780373537357,-0.0315906539962798,0.0308897318488186,-0.0639410986919191,-0.3513351414912009,10.15576365971307,0.0548906919444084,-0.0124163661897225,-0.1174429304848718
325,3250,-0.0490857765380343,0.0386372578632692,-0.0181014083036598,0.0067068665666503,-0.108483568761321,-0.4357530056050304,10.245498286578387,0.0774247151246492,-0.0147067218369761,-0.0763685407076743
326,3260,-0.0371647530432167,0.0384438290329351,-0.0004979789108541,0.0149578371949714,-0.0954579811856401,-0.4215943129676462,10.174574751061694,0.0703962380994761,0.0045075083861631,-0.0918485599365149
327,3270,-0.0421017105207223,0.026888490215857,-0.0171064826197185,0.0076651164018092,-0.0501428949556147,-0.2063740046089253,9.789138102398496,0.0538048069907561,-0.0066295878286204,-0.1103539705396936
328,3280,-0.0413640324782969,0.0295098268147219,-0.0101286641869437,0.0250625441732196,0.1393592897760731,-0.4841957104009957,10.248012457576614,0.0553536485036563,0.0017312787434562,-0.086239359289768
329,3290,-0.0411214037179729,0.0487699045673245,-0.0298660784036187,0.026851003533084,0.0748222058916332,-0.3776196638249882,10.103181805095916,0.050517785664922,-0.0219369318063605,-0.066110682798065
330,3300,-0.0539941135160255,0.0369006675725815,-3.5191537624476577e-05,0.0212170927541147,-0.0229106563173136,-0.3311946755180799,10.026433526560131,0.0806303822530643,-0.0063281506887378,-0.1042030215084361
331,3310,-0.0395992722231296,0.0566935012915362,0.0015776603869197,0.0139055167544921,-0.0090686236435998,-0.2676509714781004,10.202048732507292,0.0866330166177037,-0.0235819055800856,-0.1202964951855027
332,3320,-0.0386013873318679,0.0484797426106475,-0.0307245907239504,0.0304806880125088,-0.0923033392711969,-0.5056740844549691,10.106146829142014,0.1064503248980709,-0.016236335909607,-0.0891942657630685
333,3330,-0.0473394267356938,0.0511782395692449,-0.0259638807222017,0.0122915714851116,0.0426372764650266,-0.3926858565826541,10.319140682162452,0.1297309948086252,-0.0267096469004214,-0.100240360379488
334,3340,-0.0525190017546503,0.036071047133055,-0.0292976590821845,0.0135668919433763,0.1091702662216008,-0.3502097842529966,10.349288136753913,0.0829920518054447,-0.0146715527332035,-0.0767544290098723
335,3350,-0.0438786750773966,0.0244690330891711,-0.0271447756879814,-0.0004767203117959,-0.167411541140945,-0.4209941314159028,10.096718311063556,0.0672765698918043,0.0009962267645624,-0.0540664603485743
336,3360,-0.063341811666084,0.0265630901255521,-0.0297032990874227,0.0227841924657807,-0.1374635500671138,-0.3331989664074636,10.101219682105334,0.0573392545208632,-0.0106928115287976,-0.1062820383201039
337,3370,-0.0582479357508535,0.0272288621765754,-0.0263669184521082,0.0408073790902873,-0.1610803441133551,-0.2702802069904408,10.165285600421305,0.0662539527836072,-0.0028414367355348,-0.097878032568906
338,3380,-0.0522559337405045,0.038312557396684,-0.0125190285983675,0.0109438474070609,-0.0108726656273453,-0.4178048410705503,10.06367302158912,0.0720007428743089,-0.0134059771130844,-0.1022318056034537
339,3390,-0.0299412488055694,0.0450036959258117,-0.0174697201319911,0.019505942893219,-0.313136451851069,-0.4195075406656562,10.09346836329656,0.0695759916483534,-0.0335049132211049,-0.0852365626739412
340,3400,-0.04909176361276,0.0460796006520622,-0.0190367951810352,0.0180045522626263,-0.1162151154356472,-0.5032192132817336,10.38934524783124,0.0432593504962868,-0.0038039103694012,-0.1095687786793615
341,3410,-0.0253803605443317,0.047143537130737,-0.0342711057767937,0.0370544519859361,-0.1667610884009432,-0.4263000207425197,10.162248346891252,0.0197886702380134,-0.0095426890459103,-0.0809698119266087
342,3420,-0.0594552435395943,0.0416469777866424,-0.0263157750715614,0.0234620740882093,-0.0098866725050206,-0.2562850372873609,9.83112035360269,0.0468508368858457,-0.0167101673149004,-0.1153140431316891
343,3430,-0.0186660381364423,0.0412715021166894,-0.0045289684455764,0.047471575965659,-0.1826768207631132,-0.3347111175712371,9.956370779301508,0.1032879280029074,-0.0171197400894704,-0.1201157624118706
344,3440,-0.0398852808350129,0.041199103839411,-0.0229526601098011,0.0329681506056773,0.0346761698008842,-0.3331876807517336,9.868583209483512,0.0900391775808548,-0.0086017666683801,-0.0783945899686799
345,3450,-0.042940207661419,0.0646919019180704,-0.0272855763351593,0.042311862378762,-0.0091550436251831,-0.2806181171750166,10.22305100397242,0.080067851624516,-0.0090521266061326,-0.0902038746507021
346,3460,-0.0395056301135027,0.0530296289535384,-0.0419692402037704,0.0277036354374992,0.0006245483988505,-0.4463396719012229,10.03358364834808,0.0768665610976585,-0.0167107511302918,-0.0961639904365505
347,3470,-0.0571311660985306,0.0493504610045554,-0.0136602334506921,0.0310067562060926,-0.1658680200895521,-0.2671332719142262,10.166966122491695,0.0609020686555646,-0.0155777354102427,-0.0993573212149389
348,3480,-0.0401756053720289,0.0417846982353106,-0.0225403665157844,0.0352702753579008,-0.0562409119668579,-0.3522195173854747,10.12302521537448,0.0444510839822962,-0.0123161961743046,-0.1099152931115075
349,3490,-0.0619719597473805,0.0494537778735376,-0.0449485455554224,0.022947315742929,-0.1421971735453137,-0.4710592739741225,9.978638803309776,0.0647811365838951,-0.0118451760519368,-0.118980637237528
350,3500,-0.0430890748923357,0.0128671276624531,-0.0139021177032642,0.0473789748234026,-0.1370532946066276,-0.2476133662047024,10.131069955801104,0.0645431872214688,-0.0118446845289164,-0.1142993181811946
351,3510,-0.0658122240149524,0.0453439072049112,-0.0241195441232837,0.018607104741943,-0.1676120963279136,-0.1326646322209226,10.043339135227086,0.0385550116813917,-0.0131008291304174,-0.0914154661740386
352,3520,-0.0303463392800779,0.0409211818334901,-0.0321954460249763,0.0300409951444494,-0.0623055138992682,-0.2927996499932598,9.784617470986676,0.0372109572157101,-0.0166165578977136,-0.1197349028410788
353,3530,-0.0303714592713977,0.0445801558802927,-0.0175847045468982,0.0278396384810832,-0.197987835537463,-0.3452705848852401,9.92114355778694,0.0593151847226988,-0.0142309370761108,-0.1273444531497905
354,3540,-0.0393146298781555,0.0566155460463115,-0.012710338110789,0.0364123526146827,-0.1908291424686024,-0.3710152025527068,10.053532197927057,0.034604732194362,-0.030201125983568,-0.0819100457019745
355,3550,-0.0305680456539661,0.0648834941173352,-0.0117428437360825,0.0204562843604169,-0.1575456294728394,-0.4223348640306101,9.907952342500202,0.0523972308908533,0.0088622565674366,-0.096809564864879
356,3560,-0.0436741988074511,0.0383336034488459,-0.0282522881120899,0.0446600325116991,-0.0818284980965627,-0.3940913289385083,10.334326787822194,0.0629709846386122,-0.015559414703299,-0.0784656463637269
357,3570,-0.0507897180263651,0.0458476908335339,-0.0255813873660211,0.0373743129299776,-0.0535162412746688,-0.3580368672942373,9.745690530157086,0.0459560414549288,-0.0274417935146075,-0.0983941599148406
358,3580,-0.0449583304546303,0.0574123843703701,-0.0174266188122464,0.0291181072086841,-0.1759939593334161,-0.4814733684529905,10.126045131123014,0.0423363180413599,-0.0288420069056773,-0.0997759345868918
359,3590,-0.0375292287654018,0.0200877702094591,-0.0108204142904259,0.0510286586222191,-0.194259939971343,-0.408267615379275,10.133305291206185,0.0415775788925239,-0.0350154071287353,-0.1114310128535949
360,3600,-0.0440319908681367,0.0338541197934419,-0.0294556895797606,0.044219964162587,-0.0922359941975803,-0.438235624535876,10.34553832589718,0.0779160351135256,-0.0228873791744094,-0.0931091526654281
361,3610,-0.0349210914142753,0.0562718218537488,-0.0276441365422739,0.0038118634668164,-0.3170480945995061,-0.5125335153128602,9.983918628628654,0.0368060149893484,-0.0347544191244317,-0.0850736778098673
362,3620,-0.0488877439678894,0.0230935237180451,-0.0369320013069743,0.0143008223240278,-0.0837792092001771,-0.4044140860499178,9.613656032651356,-0.0252375023039084,-0.0196883397887895,-0.0943019314169378
363,3630,-0.0639576545790174,0.0411437487029816,-0.0430453212562779,-0.0002624174994274,-0.1120606379326525,-0.5477631839316619,10.215665417037217,0.0535405355999327,-0.0211513969228069,-0.1103327346812891
364,3640,-0.0450133447462184,0.0281120953253593,-0.037327363798498,0.0269720470792281,-0.1631018449195009,-0.4623500106975302,9.892650429172608,0.0335612272436436,-0.0336567712488197,-0.1252968859157486
365,3650,-0.0544482109708749,0.0259239842859421,-0.0235424715077792,0.0203002023626366,-0.2383539749068333,-0.4020726809870518,9.973254013197138,0.0474929591545665,-0.0116826520233521,-0.1282157436211455
366,3660,-0.0547410784837856,0.0093271573377636,-0.0632664339705548,0.0064214969109533,-0.1249157938164787,-0.4278603305379446,9.952094181797186,0.0306055836884568,-0.0245677366470577,-0.0821889525390111
367,3670,-0.0429755965785489,0.0301468820748448,-0.0275360715702667,0.0077547752967972,-0.2819073826434122,-0.3297149844002618,9.787895621153051,0.0437038574828174,-0.0333804626754747,-0.1158958553277943
368,3680,-0.063488456666664,0.029812207767955,-0.0354963793201568,0.0095571351699229,-0.300900913848343,-0.3728973123142913,9.94356236753038,0.0199528503841293,-0.0207089072981976,-0.0892295545387615
369,3690,-0.0454076356463983,0.0139911857396423,-0.0500537914991588,0.0142083149094851,-0.1323160570328252,-0.4957066349467904,10.094758749306044,0.032795634254489,-0.026164273498535,-0.0966218395146382
370,3700,-0.0665841361113146,0.0279083954545428,-0.0314079113996289,0.0061708572923113,-0.1459914802660554,-0.4802976997458128,10.14583948908167,0.0575471589767541,-0.0290656598369859,-0.0984766417091186
371,3710,-0.060807643374795,0.0417482399850009,-0.0240262401769728,0.0003209473997065,-0.2041740052460869,-0.515856535473314,10.036509005187654,0.025160114112752,-0.0192595984561815,-0.0966338255077649
372,3720,-0.0633974654674493,0.0210698582710202,-0.0296050021369911,0.002653942941556,-0.1781712654032121,-0.5052757993923923,9.671925288102344,0.0268855310898316,-0.0394280639927651,-0.1112038020715636
373,3730,-0.0659624208769677,0.0277332985601188,-0.0400662346327084,-0.0012597880112578,-0.0970288834670441,-0.4274992637174973,9.81730356730666,-0.0031774295168387,-0.0345126674755459,-0.0632172340260161
374,3740,-0.0632612750369614,0.0103488674828235,-0.0375127200245153,0.0002347432777123,-0.2722933273477219,-0.4331567618653638,10.002075732878964,0.0477726543014473,-0.0312693456902145,-0.0974012513235509
375,3750,-0.0694774321581992,0.0184283700309573,-0.0595365046853243,-0.0060333184488785,-0.1272435772968638,-0.4350895291041001,9.971249374361314,0.0568452833460465,-0.0445483365838269,-0.0630289117068885
376,3760,-0.0872415814919694,0.0205352952406989,-0.0403743788930611,-0.0115419108474347,-0.1522403675545933,-0.5391298215363513,9.872436085352277,0.0214952623323445,-0.0458290498554016,-0.1077860517181294
377,3770,-0.0672205554460557,0.0219830608669726,-0.0377105254410068,-0.0153602196501572,-0.2089483581575287,-0.507891590251855,9.954865738884758,0.0203860803356766,-0.0186860725771576,-0.1345914822972975
378,3780,-0.0685755909881926,0.0166827857113375,-0.0616499822094485,-0.0056969475250364,-0.3324276888792698,-0.2794713532540838,9.87246877881079,0.0593018077928978,-0.0141237193111819,-0.0915314612958563
379,3790,-0.072463728524347,0.0352469654729478,-0.0466304703973817,0.0144267490268667,-0.1876069783847209,-0.4726928423134071,9.757840087183752,0.0050307283802616,-0.026510457119405,-0.0688024065756938
380,3800,-0.0900101028397913,0.0046900967237754,-0.0650168202763235,0.003211712458126,-0.2581812937570275,-0.4686576633307127,10.205952288377654,0.0053240122805227,-0.0231837554669642,-0.075626796744781
381,3810,-0.0740463357681341,0.0029891527768091,-0.0586776962316506,-0.0133906703177109,-0.1530159937449458,-0.4663367431020546,9.835216339097604,0.0071490867280694,-0.0289283751869306,-0.0999482550175483
382,3820,-0.0782031481682046,-0.0137365281767109,-0.0424648344810796,0.0038729721864817,-0.1441198031825053,-0.3961163870628151,9.545533546236012,0.0182784621000516,-0.0514793092763274,-0.1589375485632166
383,3830,-0.0885551460124327,0.0227662143290709,-0.054956231104259,-0.0031218220710517,-0.1320383868815519,-0.3185063990420923,9.901443225600714,0.0178099663118813,-0.0436435882633663,-0.1321595889895115
384,3840,-0.0831797087702454,-0.0035102819760285,-0.0710979475387583,-0.0027918586799161,-0.1058652841561479,-0.3587059273226848,9.883585781904747,0.0223157829996161,-0.0249877243997722,-0.1253394991661253
385,3850,-0.0786370988155231,0.01635820473473,-0.0598155093797069,-0.0037125536563347,-0.3527050895379028,-0.2940916065386447,9.631150808694647,0.0187773388304758,-0.0346962529209949,-0.1309832186375045
386,3860,-0.0582111367791124,0.0161577383454647,-0.0435668688614332,-0.004799246958389,-0.1599213939776394,-0.3438181727263565,10.002969771616764,-0.0150665011257685,-0.0295984677018762,-0.103058383352843
387,3870,-0.0757989379584493,0.0221956454690796,-0.0345081916083466,0.001177222713565,-0.0998372429832596,-0.4803601552128425,10.172178760428848,0.0219365379619263,-0.0161508779184164,-0.130345718993808
388,3880,-0.0501052719154005,0.0355519615029804,-0.0428781518228501,0.0033867824558312,-0.1358363874911209,-0.2009927869147569,9.97187902507764,0.0355008650417248,-0.0485087980729201,-0.0889102164075101
389,3890,-0.0656686103769669,0.0372221838403502,-0.0556520622143086,0.0080549967802377,-0.3461057251266598,-0.4704808434975736,9.917864318838388,-0.0094329037575516,-0.03090413294674,-0.1293293063854219
390,3900,-0.0666747737102318,0.028330953147651,-0.0422166453862452,0.0132817313825979,-0.0789433754576438,-0.3304493069918761,10.063397150573577,0.0170255957659238,-0.0337320833862591,-0.0947773791418055
391,3910,-0.0845112908155011,0.0135234601200256,-0.0580775337779938,-0.0045622394325604,-0.249316324267824,-0.2202374123792115,9.678352047831458,-0.0201727464804926,-0.0314492117256407,-0.1269830518457273
392,3920,-0.085882477940538,0.0424833738868708,-0.052901774377835,0.0098359282557489,-0.387684406522664,-0.412201526055834,9.702630889002505,0.0410386599666922,-0.0530333287416895,-0.0822882798763136
393,3930,-0.0695980470440279,0.0208222933420353,-0.0409041985782367,0.0078564360915716,-0.1901035308080769,-0.3641079139354582,10.09269036956135,-0.0137944542366981,-0.0480360972769364,-0.1150135712254895
394,3940,-0.0742182991064428,0.0231219139349006,-0.0509894281866241,-0.00820523346547,-0.2727885557443523,-0.366059080566341,9.521571752994346,-0.0171888268591512,-0.0251189505369593,-0.1129070635627965
395,3950,-0.0672618199472713,0.0233878240997824,-0.0350959262478253,-0.0112440071000901,-0.0852694065472728,-0.3019328969951905,9.704791761295883,-0.0340009987847786,-0.0417111611583498,-0.1341922661239432
396,3960,-0.0678445617144985,0.0328702540795295,-0.0362325005709047,0.0215554880853438,-0.3058203102310105,-0.4240491475007257,9.65728460818428,-0.0369161960740195,-0.0503308644433709,-0.0856981696495941
397,3970,-0.0474721330028635,0.0134313803203595,-0.0399308298717101,-0.0140949144988983,0.0575139652777011,-0.4382017929876675,9.487394649312993,0.0013594979396213,-0.0375693957564249,-0.0712589655974582
398,3980,-0.0570321650702735,0.0092685972378571,-0.031984223582461,0.023340158547975,-0.1671695056811662,-0.281350073979754,9.700114085677251,0.0112568147839113,-0.0374222813718636,-0.0981264103414511
399,3990,-0.0641114749447653,0.031709195909104,-0.0354077516899833,0.0002228988605953,-0.3049469962636033,-0.445632560650574,10.23516462763374,-0.0019877417515397,-0.0374575557045573,-0.0750656007525802
400,4000,-0.0419489856057552,0.0424385176507824,-0.0305559848019206,0.0252890061817947,-0.3267012250886054,-0.5122673555618451,9.969872754692416,-0.0018258379573399,-0.0140917201185927,-0.0756702762224552
401,4010,-0.0396989728935505,0.0544232116571756,-0.0199465503802444,0.0368094709707322,-0.2443718434238286,-0.4803620186073955,9.721536718574445,-0.0113464591369857,-0.0505667167090907,-0.0988866430945838
402,4020,-0.0533317613594624,0.0343970268236488,-0.0218551763169996,0.0170837510480234,-0.3786383499212465,-0.3641354122020032,9.786792432909138,-0.0228509703291581,-0.0314595277756095,-0.1016752099746527
403,4030,-0.065946415119979,0.0278711729413941,-0.0534084539008864,0.0096341836637756,-0.1895567741105054,-0.2587210650598157,9.294434191979882,-0.0002894660422513,-0.052066603505571,-0.0810512454743142
404,4040,-0.0585141675213018,0.0291716274189363,-0.0351571811470009,0.0174192120754157,-0.1911309983989223,-0.4001056724108929,9.673723790617755,-0.0536747337046063,-0.0339953472092968,-0.1123043945206852
405,4050,-0.0657621991689221,0.030962007311994,-0.0434058310977402,0.0064740069081646,-0.1512304106179587,-0.3521829080572732,9.677208765399389,0.018011000030125,-0.0209013651708428,-0.1331725086291792
406,4060,-0.0556049644662647,0.0511242858422506,-0.0342028999355205,0.0407791605955168,-0.1486669842608577,-0.340435223293817,9.634096888434549,-0.0333898686047196,-0.0396698319609092,-0.1282829996708642
407,4070,-0.0447896155208768,0.0551990221700296,-0.0233386459785657,0.0312049377638774,-0.2113715463962673,-0.4151554534206556,9.805734815726202,-0.0124532075766211,-0.0306175827882989,-0.1025778964645948
408,4080,-0.047539082471522,0.0392364333168212,-0.0341177646346279,0.019851662399875,-0.246397377984527,-0.351604337799931,9.761127457892297,-0.0024997822871476,-0.0303166022535184,-0.1102330882763669
409,4090,-0.0418525113710939,0.0378689871736413,-0.0285488057157311,0.0152594123980404,-0.1515789969742602,-0.3780454273343168,9.780988970075748,-0.023032934629097,-0.0476576220232078,-0.1169584811949667
410,4100,-0.0540437635092433,0.0235441055773007,-0.0378153603171131,0.0165379429306392,-0.224603919668632,-0.2518809386938898,9.765441766214606,-0.0377413212194487,-0.0485358684261215,-0.1440888806067295
411,4110,-0.0521997549567688,0.0215807726018915,-0.0429011905412564,0.0016940043713499,-0.3086253543922489,-0.4100611793089153,9.83841910683106,-0.0146888396937454,-0.0395916575501999,-0.0885400567487666
412,4120,-0.0558981451643716,0.0217918822347248,-0.03116047595553,0.0023599888024116,-0.3981487460209436,-0.351495206685625,9.836176744437063,-0.0313349418988895,-0.0385685384952404,-0.0928946895672136
413,4130,-0.0568252718147756,0.0255909750298546,-0.0167187394855129,0.002932433200525,-0.1490027818734715,-0.4387969520905685,9.666728574425184,-0.0184816933810052,-0.036410098677184,-0.1082738348201848
414,4140,-0.0519439043028519,0.0225474644450048,-0.0384123596082338,0.0092986363670906,-0.2925133493345402,-0.4582324840509563,9.689958356708283,-0.0203242616591206,-0.0481429568621815,-0.0661939075320176
415,4150,-0.0490119099685267,0.0310258015846077,-0.0323596416624889,0.0136149968212763,-0.3416386253541455,-0.4418864986486984,9.468744970614086,-0.0568282666537021,-0.0474383337632983,-0.131269337900693
416,4160,-0.0644269331917918,0.0239075171816544,-0.0438679886691829,0.0128971949438356,-0.0675048763883259,-0.3141697928739081,9.64063569096931,-0.022785076242231,-0.0475203708509518,-0.112567992924262
417,4170,-0.0570190022252345,0.0478723827790299,-0.0231619629638246,-0.0178583714674821,-0.4718164131761554,-0.4390749456906202,9.622599125484378,-0.0240301649875112,-0.0456116277139626,-0.1101364277588579
418,4180,-0.0761092327559252,0.0284398318355493,-0.029064591921788,0.0138766883255922,-0.202507686733941,-0.3844822784052632,9.651174981435355,-0.0246385449346927,-0.0450225634820722,-0.0838863960122733
419,4190,-0.063015528840718,0.0240429829673371,-0.047075826668055,-0.0084842546881387,-0.2168524185359402,-0.5452207114820657,9.65568817097124,-0.0446507523547822,-0.0359386574101505,-0.1204335157132142
420,4200,-0.0597762172315749,0.0226699165565062,-0.036994039557489,0.015071989451189,-0.2243546782838815,-0.5320382245269218,9.444914085100148,-0.0262693785131966,-0.0296913942249932,-0.1533782289106773
421,4210,-0.0575778852762185,0.0246827161420609,-0.0348763487660916,-0.0065634282767166,-0.2930661928499611,-0.3800075944020598,9.704479021706652,-0.0216090058691086,-0.0388069553960039,-0.0959402648836221
422,4220,-0.080155944785113,0.0229631531530408,-0.0478218234723387,-0.0006714385692378,-0.3450747574459286,-0.293476896126236,9.704412878721223,-0.0662770425687603,-0.0477403591041234,-0.0801478216372136
423,4230,-0.0597848531328172,0.0193287565601454,-0.0644564563356757,0.0130553208239195,-0.347188828833598,-0.4426872658972256,9.69725034035636,-0.016959305094404,-0.0543516296149103,-0.0595065558230576
424,4240,-0.047382603856863,0.0256209135475861,-0.0466169070731802,-0.0007727699173518,-0.3866265141429656,-0.3977164944954877,9.717093808372605,-0.0381308354324153,-0.0435024391511779,-0.0845458435747153
425,4250,-0.081611923663629,0.0214290432917784,-0.0589842246184585,-0.0098028824030694,-0.166515643137539,-0.4981920979400955,9.440991100334776,-0.0113494407521763,-0.047274931642334,-0.0803905580532256
426,4260,-0.0832955196926547,0.0140558815019311,-0.0362860927246366,-0.0093051947071729,-0.1555270514598617,-0.5210742710635791,9.672655624209884,-0.0148474670387799,-0.0381352534844004,-0.0796094219278831
427,4270,-0.0732974880580485,0.0157045997347736,-0.0395721010791788,0.0349091273689035,-0.3039869909250512,-0.4301693926255132,9.639600444210762,-0.0145481786874843,-0.0312275599144301,-0.0845703455734049
428,4280,-0.0479917395497947,0.0357379835461152,-0.0315284589510202,0.0182550401297771,-0.2388171397466698,-0.4470778960234566,9.139270389529628,-0.0077667608664663,-0.0481706626867779,-0.1088358178408489
429,4290,-0.0541744176267333,0.0402757458971178,-0.028090896253972,0.0242127331035111,-0.1066409183589271,-0.4251911413532596,9.630377192423662,-0.0615900418535519,-0.0417045268396284,-0.1150863485937883
430,4300,-0.0565428415834504,0.0175208503442372,-0.0238873344896464,0.0095499226374653,-0.2918259803541538,-0.408177819181901,9.885027313931886,-0.0127066239031465,-0.0582887448406163,-0.1112122668783801
431,4310,-0.0377659820854506,0.0367294430356183,-0.0347657267789323,0.012587732424411,-0.4360457981256669,-0.3221658153881678,9.132323758551202,-0.0653776804122335,-0.0603122221993255,-0.1212581714334596
432,4320,-0.0458431041916787,0.0259640765108458,-0.0405885741262002,0.021166603430242,-0.2077792331651899,-0.1987396335585726,9.238594479941954,-0.0852649725275302,-0.0367230243330012,-0.1121566679937105
433,4330,-0.083432944963569,0.025381809490299,-0.0639683595763796,0.0002950349748061,-0.1355190255536833,-0.4608929878163959,9.49022532487188,-0.0502302735833809,-0.0492480931468157,-0.0966303904859313
434,4340,-0.051885502490777,0.0216410742038143,-0.0580805650135846,-0.0048341318949853,-0.2861942203901184,-0.3322114993945515,9.375766649734295,-0.0474969473437089,-0.042249583637428,-0.1003092222695182
435,4350,-0.0537631926205835,0.0360133089302686,-0.0388067439615172,0.0110243833941432,-0.4039632645723739,-0.4746696268554645,9.57678928480622,-0.0706952797291326,-0.0593972187247915,-0.0769686789765183
436,4360,-0.0574550035212979,0.0265694173424545,-0.0472641834505732,0.0133916577284255,-0.2066574802712666,-0.3661840661566005,9.572947561228698,-0.0298828811552688,-0.0494193956794344,-0.1090818344245735
437,4370,-0.0271080951959452,0.0509420699205991,-0.0044906752671537,0.0193157438593744,-0.2564909710904888,-0.362904892504137,9.508574124112846,-0.0370637178464529,-0.0615759463860128,-0.0776587790865469
438,4380,-0.0602111663237414,0.0468040750543621,-0.04060857158724,0.0070840411846497,-0.416398491722893,-0.3642294915916518,9.24727957052148,-0.0713119933503786,-0.052242894541767,-0.1101232067582169
439,4390,-0.0616286123235398,0.0193901279337195,-0.0286315241316209,0.0176063934292348,-0.2768207102772872,-0.359892701714551,9.488342492921996,-0.0747811672883869,-0.0429498957814627,-0.1081426419921793
440,4400,-0.0607165306865957,0.031240137023095,-0.014919188150827,0.0257400455885844,-0.3645176363845369,-0.3900580603653493,9.48506389507194,-0.0357889641230793,-0.0404320639307229,-0.074965905706577
441,4410,-0.0500527150186721,0.0554591156890918,-0.0180405149525734,0.032333097801983,-0.3802988596355084,-0.2900765417948716,9.548508625726642,-0.0804392701311372,-0.0424373316330315,-0.1048300411254616
442,4420,-0.0367300654951342,0.0422679722944203,-0.0310595275599121,0.0242583617816392,-0.1808937131721627,-0.2979244322563882,9.767721179034632,-0.0796830193664142,-0.0602399891050899,-0.085539943612241
443,4430,-0.0429029079986354,0.0287832511745273,-0.0303953564525078,0.0057616067695359,-0.2645965949580942,-0.3481492434124844,9.452726303017156,-0.0628881803739476,-0.0661147118794548,-0.1158194020738874
444,4440,-0.0432332923061342,0.057189942446722,-0.0152013151644482,0.0180776859723508,-0.2100380207054412,-0.381394914654517,9.625138214694196,-0.0391427436338574,-0.0467588300909831,-0.1459304796943663
445,4450,-0.0314708057672634,0.070654162082771,-0.0134036036429758,0.0178720127721781,-0.1836184244974699,-0.348454001102232,9.199016610394445,-0.0475210641486707,-0.0482406647250025,-0.1242361217736823
446,4460,-0.0087045807108939,0.0417527001404047,-0.0084729985388664,0.0312385592166917,-0.4661498112112262,-0.2736850533511391,9.288647011235032,-0.0792731155315998,-0.0489173142905737,-0.065698559687009
447,4470,-0.0239501392270098,0.0658400507491429,-0.023082606097747,0.0222650684449024,-0.2790076550969361,-0.4242285108534406,9.751897808684094,-0.0712286079277714,-0.0551968071663314,-0.0764722967611727
448,4480,-0.0278221717056377,0.0828989185693663,0.0053440597107318,0.0463728378571685,-0.3944861444013169,-0.2746160076088018,9.484169141247962,-0.1007297715330048,-0.0454303485191771,-0.0596514941289779
449,4490,-0.0318805728897462,0.0630726272979716,0.0019484812274615,0.0444271873835966,-0.3670282151044161,-0.2774634722566139,9.497583134537836,-0.0360790297533368,-0.0496129570121081,-0.1271999752156398
450,4500,-0.0283185254459485,0.0573311171774104,-0.0078259955693734,0.0345679238839789,-0.3285444699152843,-0.4428394591223139,9.557180114120785,-0.0576506688195505,-0.0345461213064496,-0.0931001604762341
451,4510,-0.0363912400982222,0.0636159265542662,-0.0002753597586595,0.0453448099269401,-0.3549324254760105,-0.3117544909122254,9.452849847264472,-0.0987372425798266,-0.0501653168081474,-0.0809728721593565
452,4520,-0.04287125118252,0.0629011093982293,-0.0127091466677722,0.0499647158499048,-0.3259543914160888,-0.2013412469087482,9.465521130460688,-0.0635624143437592,-0.049887425135678,-0.1531289799491484
453,4530,-0.0268135683087365,0.0677224859321169,0.0037183938660061,0.0467220005096317,-0.2597924869908259,-0.3897270705529474,9.180347151425131,-0.0740725518828949,-0.0578365973614841,-0.0818596378149099
454,4540,-0.024803377877944,0.0716678289411713,-0.0077876709100247,0.0426352803489117,-0.3598929621405403,-0.459878749403563,9.378943714467624,-0.0847688496334473,-0.0478238783242517,-0.0968569673940455
455,4550,-0.0137215099018665,0.0617982327700081,0.0062888187779452,0.0397460238867748,-0.3389572089011443,-0.2897165634918334,9.323825321480362,-0.066546630193697,-0.0410908031862759,-0.1211812291249432
456,4560,-0.0417483463868717,0.0478805252574584,0.0041810291272133,0.0389928112731215,-0.2297038659319629,-0.4642027756243438,9.375774687100066,-0.0768335862909429,-0.0452664133972528,-0.1261709252910082
457,4570,-0.0214277213249795,0.0665438635965561,-0.0050625483188815,0.0339357032013444,-0.2979227053915574,-0.4645560168856396,9.257175170061236,-0.0805164466062482,-0.0338469848012104,-0.0970541205832361
458,4580,-0.0092555345644459,0.0528653123361676,-0.0056201960398319,0.0388700059218882,-0.5015964184221529,-0.3681815116144958,9.031070690880462,-0.056792642064319,-0.0526750194400889,-0.0931899626824644
459,4590,-0.0109013040619237,0.0803631877872686,-0.0003650141444662,0.0325499815538039,-0.3929669099858337,-0.4449191011202681,9.333706166844369,-0.0442279566330885,-0.0497658149379872,-0.0686609157634808
460,4600,-0.0221367797512083,0.042246928882083,-0.0012202586387441,0.0349060113522271,-0.298622784665789,-0.3892949223864139,9.531870295310606,-0.0325103385403777,-0.0510360625856661,-0.1054730483697191
461,4610,-0.0259039497486189,0.0442189043233232,-0.0064950387537622,0.0481499856764786,-0.3136854902027473,-0.2960982640397573,9.366046854651447,-0.0344883297981735,-0.0608329365917083,-0.0929875582424163
462,4620,-0.0162032619479108,0.0794293135340448,0.007954266410214,0.0373665497319297,-0.3059811650514916,-0.1941661437380567,9.61164739813939,-0.099926022164226,-0.0517974455492209,-0.1041839192107931
463,4630,-0.0240111333735819,0.0597846261922886,-0.0010301132974426,0.0484842919772409,-0.4459267430218792,-0.3512108702797379,9.156974317287656,-0.0764392572302806,-0.0647894023157016,-0.1114591324387698
464,4640,-0.0253757358595219,0.0613186042787975,-0.0212532660620215,0.0491397981730827,-0.321764747123525,-0.3757498785799369,9.446622859509423,-0.0580485861022835,-0.0644977163783695,-0.111903910428863
465,4650,-0.0293452263218425,0.0482878968968089,-0.019696603740185,0.0280838234128171,-0.3846893414226058,-0.2797395403356928,9.29349012065872,-0.0756984783996339,-0.048497166757437,-0.1065777032521138
466,4660,-0.0360315599721251,0.0542877807927341,0.0111514783465583,0.0414009996917063,-0.31418776921665,-0.3737234452777537,9.196274733124891,-0.0577309976862245,-0.0651676061280895,-0.1343096481622575
467,4670,-0.0063931661064388,0.0411041940178117,-0.0127528531056043,0.0325225607835089,-0.1496962741547554,-0.4083520218613884,9.432453686298391,-0.0585198822331365,-0.0390812767073655,-0.0866539052471112
468,4680,-0.0285396457511681,0.0614904981975571,-0.012702190255731,0.0146049592623434,-0.1565776554509062,-0.3367446564545564,9.380974201116782,-0.1126210068579913,-0.05579622531877,-0.1520566173018415
469,4690,-0.0210933793794904,0.0503423027575279,-0.0065174911101781,0.0451458796041232,-0.4269707191115954,-0.4141145391700387,9.51693897008684,-0.0812455234154657,-0.0438530715714447,-0.0891610809488211
470,4700,-0.0222642511374864,0.0487871339595453,0.011656871631756,0.0360791234769195,-0.3212227096134766,-0.3041249859973436,9.43885607508663,-0.0796853487008607,-0.0424658693382662,-0.0657886462128099
471,4710,-0.0212041718203212,0.0594412716133033,-0.0093081159750696,0.0227061691910601,-0.3793478088757466,-0.484170085099799,9.516186935096046,-0.1114908440292089,-0.0306442808441683,-0.1221083480200388
472,4720,-0.0165281273217124,0.0306073257964872,0.007348090101573,0.0406540649423199,-0.3819586912307873,-0.3050684631700677,9.65993119535134,-0.1004408827573888,-0.0450242984401602,-0.0981198816663791
473,4730,-0.0398268794273425,0.0523913797206932,-0.0198102528145604,0.0348241365050565,-0.4617039697671288,-0.4796211646904208,9.43270453294203,-0.0967971164316369,-0.0520111711179149,-0.0803176863370947
474,4740,-0.0118174213698805,0.0525894489398412,-0.0192379228613981,0.0345902764526913,-0.3746722221090872,-0.3422984376911548,9.276487550020772,-0.0813504440895095,-0.0618427775769986,-0.0703849285013784
475,4750,-0.0290224579710879,0.0686741208916957,-0.0227808180200512,0.0256606144174292,-0.2547185634173489,-0.3496975794608141,9.297534783937916,-0.0837312630071973,-0.0349002977507959,-0.0751683394998777
476,4760,-0.0224871936757659,0.0323679041405295,-0.0255103476634059,0.0128746133023137,-0.2203465620668898,-0.3179950069656798,9.011928534641036,-0.0317098448320038,-0.0491249934486025,-0.0945156402336367
477,4770,-0.0202469905497142,0.0388690598433507,-0.012533701206707,0.0489303838635929,-0.2509147312895616,-0.2839541178834933,9.326764357618742,-0.0881012633095778,-0.0604211071882345,-0.0794611606594194
478,4780,-0.0267603972393552,0.0531237972824856,-0.0046798325024654,0.0370209508069235,-0.3370924888309511,-0.3610262763825776,9.71063393506692,-0.0462375227079744,-0.0635402949053855,-0.0897006602542547
479,4790,-0.022075129264826,0.0538754882063483,-0.0161961149511551,0.0296316424584728,-0.3441998375422902,-0.4079363880993494,9.611893523155386,-0.0985009097110707,-0.0583834953895099,-0.0811509167125015
480,4800,-0.0185614905962664,0.0439981596156084,-0.0024149207227941,0.0291955263005214,-0.3735433383721142,-0.28429247809044,9.199613642137566,-0.1029502971450536,-0.0449660381015432,-0.0644727024806274
481,4810,-0.0206607170559904,0.0538029135662311,-0.0115296837389089,0.0289215126691638,-0.1962438972564144,-0.2750956660821273,9.192731881350417,-0.0837397597394179,-0.0464635512694138,-0.1080327984424313
482,4820,-0.0226151974382894,0.0558998440931516,-0.022596731410851,0.03984108644672,-0.2856194980754228,-0.1801299939601239,9.297385444758577,-0.0982519910396751,-0.0685018021684861,-0.1203586205736803
483,4830,-0.0199742675734664,0.0390788892471035,0.0103695639943185,0.0364099753539308,-0.2887592753514262,-0.4477958789546127,9.129287547613751,-0.0654896298433278,-0.0610712611260265,-0.0958043808546603
484,4840,-0.0252728802804999,0.0482492802417383,-0.0022526434197128,0.0204413016570203,-0.3824628653087593,-0.3543409075426671,9.584388698273909,-0.0977956445085524,-0.0414478500598807,-0.0974091868984424
485,4850,-0.0451341294211405,0.0497675230086003,-0.0008704415026779,0.0417538359934485,-0.2873140356721937,-0.2681816556358903,9.605487402054676,-0.1026144944131994,-0.0380173018620678,-0.0809470716349533
486,4860,-0.0438019335635179,0.0277797273455563,-0.0212753168308554,0.0234008661765334,-0.3372138368748609,-0.1952525071899527,9.625362336487909,-0.0920831966194605,-0.0568381783158695,-0.0754436367795973
487,4870,-0.0387871757187538,0.042613550968618,0.0032026018831719,0.0324016578031475,-0.067076855211451,-0.1859552176117254,9.276655758217515,-0.0901598294094111,-0.0361797017245045,-0.0927281973411753
488,4880,-0.0336521114443351,0.0553152770607659,-0.0057492342547239,0.0112319698545126,-0.0559928189411498,-0.3696144489559383,9.357875926662398,-0.0661025645990178,-0.0229361696725862,-0.1391369690309594
489,4890,-0.0191682816713346,0.041447842287649,-0.0330251800616073,0.0233424415804316,-0.1758251649723365,-0.4054926657900837,9.5793460727302,-0.0875763359238191,-0.0307174290584591,-0.1001534434053692
490,4900,-0.0287376292714528,0.0678375412518254,-0.0010526828767185,0.0390947941120601,-0.1977244434746279,-0.3546242343686054,9.326132231966458,-0.0825584435454178,-0.0494125238255355,-0.0791645100436544
491,4910,-0.0228153727364591,0.0453920057784874,0.0018409642250363,0.0327905570839932,-0.1667049248269241,-0.2022151228479506,8.891446371852476,-0.06955811435869,-0.0479708533056371,-0.117467462700368
492,4920,-0.0260680657714856,0.0550942367425232,-0.0037990780832593,0.0335325230179147,-0.269955287826259,-0.2819581073571843,9.204552540121629,-0.0626927448299608,-0.0423829237338719,-0.0766322684885249
493,4930,-0.0281448609567873,0.0551695474137218,0.0055038999646533,0.027470210222689,-0.4335899473116783,-0.3165470609974978,9.062913426936788,-0.11004534983191,-0.0311120455155537,-0.074114564491207
494,4940,-0.0031084386385546,0.0276784679641008,-0.0184040219402797,0.0353910858934916,-0.121514802675258,-0.3199685761317507,9.189367072535903,-0.0797726205604683,-0.0538894884150057,-0.0550075930523108
495,4950,-0.0061522779342459,0.0526939973015681,-0.0149740906453148,0.0587594170826825,-0.3747329529957358,-0.2775397404772475,9.411795254384524,-0.0827109804181418,-0.051456252184918,-0.0858534686874344
496,4960,-0.0047306913117117,0.0595668264775016,0.0055034353123026,0.0513802573222374,-0.2736372504203428,-0.3270792063767979,9.56347983569828,-0.1047876666434323,-0.0611197656269673,-0.1058728586479237
497,4970,-0.0232033361717145,0.0370328963867359,-0.0053737746641818,0.0301107302932361,-0.2118210297244013,-0.2287455757925818,9.1608647900868,-0.0953977636578532,-0.0572360185505419,-0.097456929119657
498,4980,-0.0197489008783622,0.058904599485367,0.0009613060295878,0.0331807661494179,-0.3314799539397214,-0.1447900138534574,9.350922625533627,-0.0742447147388866,-0.0499342906280294,-0.0895551849599713
499,4990,-0.0088468030971399,0.0551396502333072,0.0125653833160484,0.0224754246992418,-0.190783682422683,-0.3368755968321239,9.81867906546255,-0.1020150048150618,-0.0506634688370546,-0.0801698393775433
500,5000,-0.0095318153348738,0.0561545806815856,0.0084690114893216,0.0565290287579606,-0.1914121195760482,-0.3775393842402605,9.466481833190583,-0.094407613333226,-0.0384596512228031,-0.115460693439827
501,5010,-0.000146855742063,0.0701440375507141,-0.0026116908218129,0.0369323169245751,-0.356499940218046,-0.4653677917845146,9.415203861928504,-0.1005752044107141,-0.0483292193133281,-0.0826983802223495
502,5020,-0.0043300309887262,0.0694861460955385,0.0004657622384043,0.0372773159872566,-0.53675976814154,-0.2474591289300031,9.255440396724431,-0.1087565045169767,-0.0535671724605741,-0.0547579317320368
503,5030,-0.0142436531252028,0.0760452185216794,0.0128054558543589,0.0482237821773183,-0.2154219027242679,-0.3371219148106593,9.546880705860364,-0.092927956844478,-0.0507393896781502,-0.0686745050880881
504,5040,-0.0232721353386531,0.0692136234543124,0.0156680024657729,0.0494032839102222,-0.2088140277644082,-0.2585370723065131,9.109172877593007,-0.0809894764974558,-0.0402702407631987,-0.081942326774208
505,5050,0.017879633105132,0.0734739719731461,0.023708046374594,0.0537421587451778,-0.3259152173037218,-0.2707980922985379,9.57817781134731,-0.0670426968722593,-0.023915826438927,-0.0959707153228888
506,5060,0.0200879770654686,0.0742315400127056,0.039675285331258,0.0539802194566075,-0.386420316768689,-0.293589117427757,9.318479938154072,-0.1415046495027732,-0.0504334835942125,-0.0943711303937251
507,5070,-0.0093526498422364,0.0438966812762595,-0.0017885849169554,0.0385535968581067,-0.2975154333021161,-0.2582035400541204,9.603709160661433,-0.1345823483351269,-0.0588112070745316,-0.0570650956887321
508,5080,-0.0020181890452295,0.0631322654659889,-0.0082407978155111,0.0522656546899143,-0.373196737469651,-0.3032381089354844,9.228372560170854,-0.092946481469887,-0.0292749504193155,-0.0714715711745059
509,5090,-0.0121073659943393,0.0494058016464091,0.0040702216184944,0.0357513106558904,-0.237413535976686,-0.2999981024759069,9.436752955055864,-0.103217538619206,-0.0679569791146199,-0.1149986137655127
510,5100,-0.0211707817242665,0.0604295505191671,0.003923274969715,0.0373467538774862,-0.4402699591909976,-0.1739779021258645,8.852888491629592,-0.1281714802014784,-0.0388424582018404,-0.079332327162486
511,5110,0.0056476986296411,0.0643265540227854,0.0137490344055648,0.0311977113093788,-0.4720540136761705,-0.2730921890180577,9.586184839330144,-0.0745743539501745,-0.0478837886959572,-0.0629949353375376
512,5120,-0.0184057403223445,0.0647728770648214,0.0199003545206877,0.0371979580881539,-0.4478008979680726,-0.3314423795713225,9.31249992576428,-0.1187354314756299,-0.0392161678302971,-0.0994914705030034
513,5130,0.0052848427923072,0.0967458834321842,0.0045363767197985,0.0570686788420566,-0.5274235639917527,-0.3006433028056452,9.353489060614756,-0.1028705708019176,-0.0422477179943753,-0.0940020213370206
514,5140,-0.0022720274046793,0.052570368369954,0.0265419724840548,0.0314870483948805,-0.0098539162962383,-0.1805281294364849,9.034898923499538,-0.151398527701641,-0.0335085185774623,-0.0721035006599728
515,5150,-0.0266204223702923,0.0314289287598474,0.0171827478535492,0.0336827179868667,-0.1443719951356208,-0.3034860644870536,9.405463789775949,-0.0996549620292569,-0.0454206773582853,-0.0932719813523202
516,5160,-0.0127701916529556,0.0506635271983553,0.0055681322578436,0.0369332786245653,-0.2251891408783649,-0.1001695621822646,9.39165969584644,-0.0843162213739326,-0.0510672909779729,-0.0986043026944052
517,5170,-0.0210521219427203,0.0409062373006089,-0.0218515001280392,0.0303145982829717,-0.3957739223495128,-0.3105412364616984,9.779177581078704,-0.0852308435520026,-0.0255325102193781,-0.0890746623718455
518,5180,-0.0104720009492371,0.0659638322354682,0.0145780756869382,0.0527896622174475,-0.484554288739833,-0.3066156237206787,9.156949317551437,-0.1122275713700947,-0.0429435271630136,-0.036861434687443
519,5190,-0.0171672637020815,0.0537786300036813,0.0108526598497537,0.0353385228365947,-0.064272823536618,-0.3584272437327715,9.38712590736822,-0.1136204758621876,-0.0391821422103658,-0.0797297166129547
520,5200,-0.0323023486777101,0.0531009398149605,-0.0098818319132105,0.0390803065405822,-0.5575401016119989,-0.4837953949582726,9.294750975678635,-0.1077939081828854,-0.0579699022996253,-0.0674858272831606
521,5210,-0.0068278178097315,0.0474025770711492,-0.0048481682594483,0.015294881532969,-0.2980872357834939,-0.3951120538005052,9.203204610394211,-0.0822839308959021,-0.0520542489415781,-0.0685417912707472
522,5220,-0.016340858445875,0.0343935355054773,0.0062686344116968,0.023142870981329,-0.3312184802698363,-0.3101093198740621,9.369545892004233,-0.067794657099892,-0.0432987938483428,-0.0707264283886111
523,5230,-0.0430440618348164,0.0223189747327184,-0.0195401717509649,0.0061142621689029,-0.4110114530283881,-0.3385099675119612,9.207703797233169,-0.093381193230933,-0.0386203493377493,-0.0745323610478688
524,5240,-0.031531045553509,0.021887272722799,-0.0100532730731259,0.0296269917696335,-0.515837733892221,-0.2027868434238652,9.626454893208736,-0.1089063172025949,-0.0341610587369008,-0.0600473399482594
525,5250,-0.0025811494889795,0.0272989652985801,-0.0199552762341985,0.0196188426361711,-0.1663452402229776,-0.3460327088706977,9.43109287357738,-0.0982490969764906,-0.0367611111721708,-0.0248474515672664
526,5260,-0.0253369160603668,0.0277718798572591,0.0020253307968914,0.0352403658313929,-0.3515895033843631,-0.2527170240050285,9.422922699483088,-0.0849484990204622,-0.0478667029341736,-0.0406513658359234
527,5270,-0.0249251856703588,0.0337055058953317,-0.0033094269886559,0.0172556252781154,-0.2102702838206847,-0.3263996726753206,9.512671740312609,-0.1273478618221261,-0.0423352356863752,-0.0827676512469806
528,5280,-0.0235379346886146,0.0313528258509755,-0.0111041907188662,-0.0103623868866299,-0.3366259576339477,-0.2716092787376851,9.810225081871662,-0.1096003189971198,-0.0467523636311886,-0.0768929644414095
529,5290,-0.0240050880827992,0.0131213610091983,-0.0303727086644235,0.0032451319563429,-0.1844713787178095,-0.2904442532800284,8.865582754744178,-0.0954957539223027,-0.0480551473069438,-0.0632411918654459
530,5300,-0.0238364431306964,0.0239235845957447,-0.0090248034336026,0.0175075280608567,-0.2068487020054074,-0.1951038257601219,9.094417065323034,-0.1002738250138286,-0.0570324481019125,-0.0772316613599508
531,5310,-0.0285595341324873,0.0171904654991579,-0.0093357642565756,-0.0046583390376418,-0.3863373732655308,-0.0799034135718082,9.013615191018104,-0.0999515649228093,-0.0366922752232058,-0.0780105783727628
532,5320,-0.0303768573175871,0.0317869331519723,0.0026391649406771,0.0207996840211499,-0.3097265960065276,-0.1832783160017074,9.566929883152028,-0.1212896946974378,-0.0307827679729036,-0.0740754584374521
533,5330,-0.0314503304258028,0.022999613426943,-0.0102065818728405,0.0042911949058606,-0.099056811848485,-0.1315986457290415,9.357145416488022,-0.0825730840611808,-0.0502638802045053,-0.0096599232403438
534,5340,-0.0393052406174713,0.0144716288272682,-0.0081697717933668,0.0211772260970828,-0.2381807305456248,-0.307325830285887,9.317596357596395,-0.0748115048973094,-0.0282601608682343,-0.0881345140618912
535,5350,-0.0382138745400384,0.0411898626332701,-0.0153313207976347,0.0291203246561366,-0.3243929211275627,-0.2736945415939362,9.287709377095352,-0.0645679149441645,-0.0254375271324906,-0.0504257517740903
536,5360,-0.0171595254050101,0.0379515228357032,-0.0135731333021045,-0.0029147596538342,-0.405280730919515,-0.3897337300295913,9.3331721835369,-0.1300487508731157,-0.0424256643527539,-0.0620102033790498
537,5370,-0.0263692259426973,0.0156605866914865,-0.0217863294269498,0.0202437295221247,-0.4024380637465887,-0.2866074723900635,9.344082242594,-0.0783911186662869,-0.0409499185738544,-0.036499456361678
538,5380,-0.0391318399629479,0.0073414070456177,-0.0152313516213475,0.001716808999712,-0.1800141228610026,-0.1947175174171678,9.403581753687506,-0.1189591477171196,-0.0421629145039457,-0.0475198732055274
539,5390,-0.0390191440968102,0.0215303403452021,-0.0136531883088873,0.0125492560619033,-0.1496004023616469,-0.3211241704026835,9.049253802798376,-0.0891441208478664,-0.0321878602469421,-0.0537326904332193
540,5400,-0.0285827431966529,0.0074847737894161,-0.032570242155733,-0.0099759261947015,-0.3479803100745229,-0.3203407876158128,9.29415669550341,-0.0472157475953674,-0.0180087633750281,-0.0853567922518716
541,5410,-0.028948280723113,0.0349791188196912,-0.0145993078922558,0.0119010355818348,-0.391166976553337,-0.3552351909996544,9.158641018009224,-0.087468511945385,-0.0405650693005376,-0.0491126203261308
542,5420,-0.023857375368052,0.0320573643563666,-0.0229606590642107,0.0038619133733075,-0.1882685634630633,-0.3350043602352852,9.371392696233926,-0.1039977243389057,-0.0422774582961133,-0.0636858748750989
543,5430,-0.0271551168432792,0.0123303643925324,-0.0146171655765223,0.0103227435927346,-0.1527342539964489,-0.2264656080687633,9.492287359165433,-0.0833170365282667,-0.0425487612953999,-0.0507109714075236
544,5440,0.0051520634771423,0.0274127658132586,-0.0042154636238828,0.0343071509633125,-0.3365633653682275,-0.0633290827300531,9.177070177337043,-0.1188999672274911,-0.0514815553162907,-0.0802407402412269
545,5450,-0.024816021902609,0.0444061966396452,-0.0204019442832763,0.0278959715275696,-0.2694108130816926,-0.164208840599811,8.940379424159424,-0.121104403455365,-0.0437381120982831,-0.054668030081684
546,5460,-0.0117461564057881,0.0191791639258777,-0.0041531857883308,0.0149551361829807,-0.2813220098633562,-0.2669972688486453,9.524027014792198,-0.074076488146076,-0.0329482483853269,-0.0598297372784788
547,5470,-0.0246195407595412,0.0358499034433947,-0.0140447392658102,0.0172654248727702,-0.3225661284814679,-0.3991475157956787,9.47918489082887,-0.0547842821507616,-0.0289445169829343,-0.0561185588997426
548,5480,-0.0290555982187048,0.0217025591467568,-0.0253357404181756,0.0114540798899236,-0.142626060162946,-0.1595919538000071,9.296273264771289,-0.0781901040905103,-0.0372172517982649,-0.0487139626133843
549,5490,-0.0169911852147934,0.0243658031199783,-0.023888619305507,0.0208768860474049,-0.2590394345422068,-0.1727158366843848,9.4828774544307,-0.0971799751541942,-0.0371977878546212,-0.0890180962042084
550,5500,-0.0182242705766342,0.0315352316069138,-0.007311160795278,0.0212265124302092,-0.2113080470569426,-0.1460076088725424,9.224908123848456,-0.0889547149116914,-0.0422025290483196,-0.0182911550650923
551,5510,-0.0399639991712803,0.0344391724616357,-0.0094325383812604,0.0339870321881583,-0.2177687358066789,-0.2494970150916918,9.254318089893772,-0.0859363263694812,-0.0209193580186145,-0.0614031690654221
552,5520,-0.0153633640477549,0.0241344100008779,-0.0070500171475081,0.0163494125107504,-0.3226775754979689,-0.1629242168239338,9.260967610933236,-0.1039706376447966,-0.0197152525095091,-0.05652101798773
553,5530,-0.024024387205681,0.0295499331391288,-0.0013952337204611,0.0059034625475185,-0.0322770855799176,-0.3984856646988619,9.363581256301302,-0.0824380727349078,-0.0277868965387474,-0.0512743842846659
554,5540,-0.0217637601432651,0.0273003686995985,-0.0184738557823801,0.0111240850812497,-0.2590962875645007,-0.2927851922449833,9.319802441516162,-0.088725447293472,-0.0399378987515153,-0.0062839338724985
555,5550,-0.0278579230657881,0.0143807312003072,-0.0120718502384585,0.0068376700737288,-0.316970613936153,-0.2824158049148516,9.152456228794124,-0.066019919530969,-0.0146308811226734,-0.1010606580870241
556,5560,-0.031971272510591,0.0372871848785149,0.0090581371609059,0.0308955452620665,-0.0085660044844924,-0.1499744457715059,9.497751012607676,-0.0809345444304809,-0.0311251652281674,-0.0562467432599618
557,5570,-0.0264817586158451,0.0277417671063057,-0.0228712099926035,0.0041418655077005,-0.2040931706988026,-0.330655788135956,9.57646320664556,-0.0567761923915125,-0.0454631757412612,-0.0796836588545233
558,5580,-0.0315542752222272,0.0186974070634362,-0.0322546239404463,0.0159363868774618,-0.2276086782390756,-0.1141898924456323,9.23005168448117,-0.0870541201527396,-0.0204888855583384,-0.0608423306712827
559,5590,-0.0379234330206467,0.0042889435724051,-0.0145713260135489,0.0109299292124179,-0.1915722787369197,-0.1464939965630669,9.219781831288174,-0.0978703336801599,-0.0285221015237451,-0.0553322005382891
560,5600,-0.0441653345084714,0.0250646600343985,-0.0191892347043248,0.0163102780832358,-0.0851502150336326,-0.1733458928579394,9.326806335785006,-0.0843004374140158,-0.0203599835231043,-0.1018767157358704
561,5610,-0.0196506782517273,0.0223993113546404,-0.0168168470528578,0.0060787477384971,-0.1899365627769733,-0.1189054384726421,9.460676388752177,-0.071294858785886,-0.0368354410278848,-0.0783998560465041
562,5620,-0.0386794833202369,0.0221435352547079,-0.000885441701515,0.0021080862493868,-0.2491803260716724,-0.2335590393585652,9.44149471467084,-0.0849873458507139,-0.0276120392180756,-0.0430328004260073
563,5630,-0.0346256791106084,0.0053927398296778,-0.0285802028545657,0.0033467535066778,-0.1338866813266543,-0.1846279603508133,9.30467730251712,-0.0690304378350988,-0.0244392981757121,-0.0578262512207084
564,5640,0.0013270021155826,0.0178313165962858,-0.0192168951400861,0.0005232395008322,-0.1978566124261353,-0.2429551197038088,9.578717507127738,-0.1019549181408879,-0.0412459161215482,-0.0665803138638999
565,5650,-0.0278786192715211,-0.0064985564951374,-0.0187830815804615,0.0025193471947281,-0.1652810929211085,-0.1722656201395217,9.65554619576837,-0.0707361431052403,-0.0290931983613254,-0.0772000314794104
566,5660,-0.0274572879945095,0.0030678559702668,-0.0157947273798621,-0.0034020505204967,-0.1579113571637735,-0.0701952192974775,9.279498127413229,-0.0871558180677447,-0.0207501146471482,-0.0665883892638355
567,5670,-0.0429560007674122,0.0140785020208168,-0.049439358105041,0.0055670225800007,-0.1743653903763791,-0.1232148214270708,9.670221995938777,-0.0648722980399988,-0.0394075519209043,-0.0389979353681347
568,5680,-0.0455579766115588,-0.0190048225175763,-0.0337124003001652,-0.0006665514147137,-0.1708478715914345,-0.1690939609258494,9.362237777397386,-0.1243624668328962,-0.0267242045950561,-0.0566757533556117
569,5690,-0.0262865096261608,0.0215024664689517,-0.0175740964790539,-0.0011571445788354,-0.2400103862091506,-0.186008065163722,9.440197835023564,-0.0606257034915212,-0.0345077793502034,-0.0197417227215256
570,5700,-0.0410213141957119,-0.0098044166754247,-0.0379676984781172,-0.0238155058219462,-0.0026023456583574,-0.1352636042137599,9.642580711296487,-0.0735722976147539,-0.0347589668623199,-0.0636234128205697
571,5710,-0.031411892316536,-0.0094112843389857,-0.0294759487701544,-0.0123411041942355,-0.0182465546489267,-0.3031953706263603,9.701388435212769,-0.138547923106541,-0.0230071161662091,-0.0420832956886288
572,5720,-0.0424625972359878,-0.0071408631216169,-0.0428826634201336,-0.016895572497235,-0.1112640743024972,-0.2420449915465948,9.73511494343068,-0.0786462571652142,-0.0382922607643641,-0.0466861141694599
573,5730,-0.0369515687242096,-0.0065823392027424,-0.0388896490426279,-0.0017514808836157,-0.189712132828855,-0.1005150727656465,9.400214167388476,-0.0821285035049121,-0.0225238645092468,-0.0492638841595506
574,5740,-0.0494687755922949,0.0073488150736955,-0.0434446405898531,-0.0210658714682731,-0.0762052242056683,-0.1394756934240387,9.431281485757548,-0.0988123423050965,-0.0241949816417793,-0.0475253333414449
575,5750,-0.0449701247141565,0.0026106821202763,-0.0231242933182784,-0.0130210446514942,-0.2231063636344684,-0.0120245294666606,9.65677074881319,-0.0755341967843867,-0.0387608506989712,-0.0462950251039137
576,5760,-0.0512635226996236,-0.0140093750772935,-0.040794476304191,-0.0097261036458576,0.037774344595444,-0.1613393659891933,9.19967684324645,-0.0463781282267806,-0.015609688854152,-0.0769281592920954
577,5770,-0.0666349458325931,-0.0227374142824714,-0.0252274230197228,-0.0233350885353658,-0.3488401309633868,-0.0465943060415262,9.22716765966259,-0.0669585735499904,-0.0218412066195909,-0.0438094407739594
578,5780,-0.0440859497293859,-0.0239600396531892,-0.0444421558529133,-0.0129148754457609,-0.0037639604688466,-0.2408623984767609,9.453552646876988,-0.0821154955158496,-0.0473532802898655,-0.0733608511307284
579,5790,-0.0436749681547361,-0.0076081173032578,-0.0249504322096369,-0.0310793204508159,-0.0510249718271253,-0.0444489764239088,9.764386280008706,-0.1152241089823559,-0.047283971535525,-0.0180276115277789
580,5800,-0.0526817552210343,-0.0073951267121984,-0.0489441003258032,-0.0358447408548344,-0.2112081804558509,-0.0271013693867082,9.493147949409517,-0.0779471378862828,-0.025079871718032,-0.0477825542384696
581,5810,-0.0463674106727958,-0.0072624115412059,-0.0329730698578746,-0.0152638636715408,-0.0931451516508676,-0.0820097829168784,9.538043218338546,-0.068344484990939,-0.0320348433361433,-0.0409684936438673
582,5820,-0.0596438087714227,-0.0092875592360921,-0.0442675213981899,-0.0275009539769005,-0.0809307888812557,-0.2656100879176378,9.439404934252082,-0.099796816899492,-0.0203739208794108,-0.0203942156064126
583,5830,-0.036570064085886,0.0077397295335543,-0.0476546937536509,-0.0212781101937302,-0.3372461539141036,-0.015847590468249,9.49914822721514,-0.0766273169292345,-0.0283577202318122,-0.0258149279719649
584,5840,-0.0315497857322787,-0.0004076862766929,-0.0226155105456548,0.0138710194834772,-0.1362769653156463,-0.0151491240432872,9.449316966449864,-0.0764476205350581,-0.0223340907377321,-0.0214365506007478
585,5850,-0.0361944420638708,-0.020831221335054,-0.0301704536632451,-0.0032223220483816,0.082204728231144,-0.2129846733464807,9.03945435167776,-0.0732052264096722,-0.0280845509213277,-0.0110427870588873
586,5860,-0.0491253101860828,-0.0108031354938213,-0.0367137426888945,-0.0112666155094399,-0.1701937499442228,0.0482830386059981,9.538853458958892,-0.0838356574238745,-0.0131445627294091,-0.0421015100227673
587,5870,-0.026878565781715,-0.0109141280633461,-0.040706198715424,-0.0161889712328448,-0.3087378208090225,-0.1498684374504734,9.248843370555903,-0.0189498110279214,-0.0263408242948076,-0.0082098770503626
588,5880,-0.0520159327278777,-0.0144316242762728,-0.0540938428293149,-0.0184603666001914,-0.1021395406040589,-0.2664719231421016,9.309671357491858,-0.0801582601986311,-0.032738955082946,-0.0339440570302432
589,5890,-0.0337057063545483,-0.0185063601998341,-0.0190408449714355,-0.0165919593036299,-0.3426019813388541,-0.0437685948250395,9.492211707051714,-0.0341489122357282,-0.029183165645855,-0.0187639420596841
