index,elapse_time,susp_fl,susp_fr,susp_rl,susp_rr,acc_x,acc_y,acc_z,rot_x,rot_y,rot_z
0,0,0.0333582875296353,0.0022128093350193,0.0449001899358883,0.0173850570857438,-0.3029780732978103,0.029323100901838,9.892496389129638,0.0814221804351581,-0.0309155297997811,0.0661318208688829
1,10,0.0240030759342044,-0.0110741600659668,0.0190229903384933,0.0033970916583628,-0.1639492344374622,0.1610463278638155,10.37839886951551,0.097897768305511,-0.0407644589315528,0.0432546912807279
2,20,0.0330703777865033,0.0017419804654716,0.0075787294103307,0.0035260537485657,-0.1423891616349538,0.3180722226446494,10.370330146978231,0.1212435823035782,-0.015722312278068,0.0615428395219058
3,30,0.0225507769897858,0.0024136501807372,0.0382684692266907,0.0104606394991754,-0.1656088420239946,0.2041856590387222,9.954020819393124,0.0773950053778109,-0.0376152335415966,0.0549011382090351
4,40,0.0145512452270893,0.02568407713892,0.0101764484713252,-0.0131729183851103,-0.202911929937047,0.1881448011425293,10.337700877999694,0.0897731152253448,-0.0324908894639628,0.0692193099044818
5,50,0.0285990226195011,-0.0078087353145561,0.033721323712358,-0.0126942814012943,-0.220978322962315,0.188906921440449,10.254950568148956,0.1032130944999929,-0.0402495013579464,0.0468804616482871
6,60,0.0173815311967283,-0.0060750928219977,0.0204631650400557,0.0075169947308951,-0.1780058987130628,0.2122913259706147,10.0225048055976,0.0827782386803104,-0.0410744502696314,0.0995124326160328
7,70,0.0315483429184584,-0.0090153383919422,0.0200101228684303,-0.0048295634012218,-0.147542499675906,0.2975094543557585,10.358310288175511,0.054046090730974,-0.0341687777745556,0.0704411497457023
8,80,0.0243821192214331,-0.0012569866654867,0.0149424140432734,-0.0016188634098874,-0.2019218224968322,0.279554203369326,10.372657550290365,0.1112050011189899,-0.0282545580883118,0.0854872288216787
9,90,0.0168473233211398,-0.0187235443463076,0.0205208343403222,-0.0205625392926269,-0.2696257443804994,0.2507283509655812,10.044557659817045,0.0678425427768872,-0.0492428943160136,0.0632981014391241
10,100,0.0143206931266473,-0.0211285343215214,0.0118213743194516,-0.0082191738243624,-0.1771064141624113,0.1699088865544634,10.16287876945859,0.0932053231830717,-0.0152147542817593,0.0927399162962455
11,110,0.0137406184448534,-0.0073408125551502,-0.005790188024858,-0.0161620819814564,-0.1516648837113403,0.2937659976023259,10.349486042959946,0.0844092733021165,-0.0598595987351835,0.0826690967401124
12,120,0.0046703504957187,-0.0066496633903117,0.003433058607355,-0.0135062212113959,-0.2107024406869469,0.4650427181013347,9.713473053308771,0.092851882672573,-0.0153163183188905,0.1297092204486526
13,130,0.0033896210724933,-0.010772839510391,-0.0032461644660564,-0.0387082002555643,-0.2276999747479107,0.1678080588705485,10.033437253840846,0.0846942638888653,-0.0419235543889325,0.0712582654489893
14,140,0.0086820692604955,-0.0156487490723108,0.0115944194373864,-0.0064533679096254,-0.0435244715915247,0.1287581885026399,10.148673528157776,0.0718910033954073,-0.0444669239390407,0.07507401137765
15,150,0.024850821480454,-0.0072494392283685,0.0095658125068566,-0.0150341713759367,-0.1466203096262544,0.3586298717121762,10.371934059563433,0.0774757678907515,-0.0212087512300182,0.0583854678999731
16,160,-0.0022391643478644,-0.0273882575746825,0.0192585148666988,-0.0216682801097907,-0.1948125592009532,0.1297342206183322,10.284560977154662,0.0717459606583002,-0.0464406098555904,0.1042404916780659
17,170,0.0048757694700599,-0.0294704811772115,0.0084683162393507,-0.0207438907643494,-0.3645090203684574,0.2484082443824767,9.694795910290615,0.0740434016712534,-0.0369235905455,0.032119617145114
18,180,0.0108060131368547,-0.018617849218173,-0.008152397103942,-0.0298740244904367,-0.0670094500868461,0.3356127390825979,9.920894551398511,0.1209058233457341,-0.0341461033201182,0.1098086877243395
19,190,0.0075192885872044,-0.0115496706030272,0.0198599956622451,-0.0085379041990119,-0.2649096884624893,0.3152864390398928,10.019076700143843,0.1003230266332913,-0.0341683033192175,0.1066146081924059
20,200,0.0017074777233474,-0.0393579896133298,0.0065021626081185,-0.0134836159003726,-0.2129553004261952,0.2168627581467943,9.963193592486776,0.1508311678851815,-0.0443782943337968,0.0286867442146456
21,210,0.0117176973707547,-0.0156139885872494,0.0180905988533645,-0.021259969075577,-0.1535832460721997,0.2861083465008023,10.187311581770404,0.0866716012364438,-0.0301527366183965,0.0571276674460371
22,220,-0.0074663187833771,-0.0425611866945819,0.0112131137912104,-0.0203277023010572,-0.2921598453702798,0.2690210184781348,10.195909338982116,0.0664069410293886,-0.0345324933026802,0.0437152560499804
23,230,0.0078598683170679,-0.0210803118329735,0.0106427009812562,-0.0043891944646559,-0.2796202109957296,0.4889101934597886,10.417130571720094,0.098031825185074,-0.0557374571267612,0.0627629972833417
24,240,0.0193051429723227,-0.0198897587080755,0.004371651623759,-0.0097416553979993,-0.2546979269468828,0.34366358565634,10.5927409322001,0.1220805988848221,-0.0314311942805481,0.1052125049171585
25,250,0.024832226473601,-0.0357943767919445,0.0163446097361306,-0.0124015813487259,-0.2119256883882949,0.3234500512504176,10.20590861715254,0.1052523953712654,-0.0432784514277823,0.0941114548504013
26,260,0.0104212537477393,-0.0363434898160535,0.0171676806703422,-0.011514381346082,-0.1406307879171926,0.3263804769867073,10.249830821713305,0.110339170060884,-0.0344911708920299,0.0622990990421053
27,270,0.0099575915033718,-0.0237088450780376,0.0190306339661652,-0.0265710917686131,-0.2575216461164546,0.2880308234887669,10.526292706561271,0.0783397817716312,-0.04065128293274,0.1123070715687505
28,280,0.0201417530667917,-0.0160931359548574,-0.0027267745500941,-0.0003399406162983,-0.4208081167821081,0.3532868197771631,10.478882147531936,0.0889704392403954,-0.0421616772610225,0.0975556881426453
29,290,0.0295928489868371,-0.02797514335595,0.0163569755805041,-0.018272896019502,-0.2254840949270934,0.4251039625925091,10.122464332504368,0.0860148797269325,-0.0367730969506205,0.1241412822250074
30,300,0.0162940137142039,-0.0105253603659286,0.0037802832826579,-0.0153327235144505,-0.4029449781133226,0.3456736141315453,10.656508959868818,0.1204380310708422,-0.0601521837181987,0.0993834938430746
31,310,0.0198356008550769,-0.0299211229877919,-0.0037023223997107,-0.0433177767413841,-0.330931630161598,0.3647495106480424,10.343810592969248,0.0813419615004785,-0.0388215463231548,0.100656259381728
32,320,0.0219569582429885,-0.0113623618518841,0.0165277199905225,-0.0257935663393435,-0.2679530160487548,0.5139070952590085,10.132261265894146,0.0884141336889846,-0.0415480128821371,0.069557374955035
33,330,0.0193240561426129,-0.0105364064787924,0.0165141863258636,-0.0140420827775664,-0.1722914625902923,0.2578311736661203,10.567979880800795,0.0683448120676233,-0.0452079333625812,0.1088428642977858
34,340,0.0287656399744777,-0.0222422501115134,0.0201433554138349,-0.0039832603985013,-0.3017711905313519,0.3648764710707902,10.47526211695806,0.0903232604072721,-0.0477542822784152,0.0435079850538849
35,350,0.032872232030881,-0.0223123993220868,0.0280601823977023,-0.0022296432879511,-0.2740297267372633,0.2415182956708303,10.346319057959008,0.1116798345582537,-0.0525320429459663,0.063359070867262
36,360,0.0194025268286241,-0.0366066004082174,0.0169126171833891,-0.0175288592463159,-0.3730777717890908,0.222562339479629,10.05019994331096,0.1081187884124251,-0.0402023189697785,0.0867494098354808
37,370,0.0505420772303426,-0.0208498083007847,0.0432486477510457,-0.0134367853182754,-0.2143797051054989,0.4055477837102586,10.25421276501728,0.0821348076570277,-0.0342896637019121,0.0840953876742784
38,380,0.0464609267282191,-0.0142255564442772,0.0229639950685366,-0.0090683357280694,-0.1762471730545539,0.0680823492715959,10.40665984479111,0.0683414023226512,-0.0417064545172443,0.0834004076259916
39,390,0.025113282917552,-0.0005318884130433,0.0246014988252367,-0.0234569331206076,-0.2854129303706578,0.1422543665332085,10.0665230267042,0.067728854764121,-0.0475971683418226,0.1135692182525728
40,400,0.0321509947624659,-0.0118400350568465,0.024618359221899,-0.0153215855822538,-0.3869062406906695,0.4823785597923671,10.211600576568127,0.097218520224777,-0.0408752641222559,0.0551636631335056
41,410,0.0149503571016082,-0.0148316353112431,0.0264990162074341,-0.0129497835900391,-0.3646644971780592,0.1962404384418301,10.326615092392368,0.0758330532302033,-0.0371030250752239,0.1394020552790877
42,420,0.0056075963063027,-0.0272622812720676,0.0103167954689712,-0.01836000690528,-0.1983413365318648,0.2137513417393562,10.165981424527397,0.0970990346352024,-0.0652411802122603,0.085186251035147
43,430,0.0207708320443133,-0.0301936130927893,0.0248970025266343,-0.0228089203546402,-0.1717632397973976,0.2843677929165472,10.345239876334546,0.0821147329788714,-0.0572316157283702,0.0964263438098631
44,440,0.01879302360163,-0.0183954971826074,0.0370051758057679,-0.0103341747089319,-0.2795658783918902,0.3087093521593195,10.297059165257751,0.0871096095112882,-0.051998143619649,0.1061264761463415
45,450,0.0348538506658554,-0.0003531762080611,0.0098007044349383,-0.0171837910479335,-0.2638220694057128,0.5013792288544998,10.426805966064784,0.0982595104214065,-0.0354407030685543,0.0806503564119483
46,460,0.0191838948520743,-0.0145117073215225,0.0217023126923547,-0.0183881076240816,-0.3401859208741294,0.1360779358873829,10.32648889704858,0.111385731170783,-0.0502508891395116,0.1111972934033612
47,470,0.001131014344202,-0.0307158400639474,-0.0021459679000472,-0.0130504586989106,-0.029838478751097,0.4186446981089521,10.26386706660926,0.096922322588283,-0.0259194936017474,0.0467892891836019
48,480,0.0096233595463169,-0.020710861980939,0.0349345324065038,-0.0365544554029518,-0.1477202627575883,0.3673273583520509,10.4309321857691,0.0785211494456277,-0.0501714690721705,0.1226296708807636
49,490,0.0268022053106359,-0.0266803289788831,9.674499267666586e-05,0.00477672797699,-0.4788245350886101,0.4071218284309753,10.338555845786352,0.1092015163291893,-0.0428969637904552,0.0874531746090541
50,500,0.0248237177237394,-0.0261561760436032,-0.0020389923689247,-0.0285032085238955,-0.2404651179983322,0.3868874268356083,10.35285292216195,0.0953711671768816,-0.0499414447134765,0.1157968983778963
51,510,0.008794986640441,-0.0260480192305305,0.0176083095632455,-0.0370110442270311,-0.2560880212373972,0.3324799029814685,10.548465349507552,0.1013137260644414,-0.0380889246173358,0.1380866359419454
52,520,0.0106738043812993,-0.0213255700666762,-0.0035730028743482,-0.0220218818455196,-0.1336643408655977,0.2593702743933362,10.701083450364605,0.0964494557759145,-0.0512413344676318,0.0853281288426712
53,530,0.0052572349998866,-0.0609429409946049,0.0115817283750355,-0.0407615712982056,-0.1738727921118451,0.2870019446103368,10.255037623481876,0.0582882283672544,-0.0452955206461294,0.0994469127733778
54,540,0.0012450168732868,-0.0426027438748513,0.002312934210173,-0.0512192662189212,-0.2668096699178997,0.2327152967438664,10.339397272627709,0.1102018874116575,-0.0482783341316374,0.1519850158511699
55,550,0.0044538407485384,-0.0374758004553817,0.0045620239143747,-0.0397484992688122,-0.2995607554336247,0.1856834597722628,10.445663069030642,0.0907508386944648,-0.0350854866766488,0.1214026519692625
56,560,0.0082270819540739,-0.0315032476587647,-0.0076344211796287,-0.044560489970911,-0.37214846119301,0.2765546372033365,10.378736120140324,0.060004881283083,-0.0290785122235392,0.1152115868836662
57,570,0.0080175275504824,-0.0350511635880132,0.0008739934179042,-0.0237412940686369,-0.2539453066404049,0.4307768346437788,9.906310945167236,0.1052051458326552,-0.0607549562639,0.1522416438333921
58,580,0.003729882548039,-0.0655146771526127,0.0072360846702044,-0.0439082534060681,-0.5019875860729907,0.3776957964799763,10.099517927013077,0.091923786794507,-0.0573256060554893,0.135636278618376
59,590,0.0072494469757783,-0.0294986697744285,0.005726117747711,-0.0335659521184853,-0.2413029247709918,0.580063658381252,10.52287924016558,0.1335748410216883,-0.0437413021298803,0.0654117287711454
60,600,0.0088861504479864,-0.0550876912224158,-0.002644512357935,-0.0441948344485159,-0.3544154071061219,0.1916862801825333,10.228194024470046,0.0953769302818412,-0.0513235680393197,0.0848484702906406
61,610,-0.0027201287678933,-0.0331164113219304,0.0095576420996832,-0.0277846608199567,-0.3346834600862627,0.4236808463013916,10.202779359120042,0.0980563459620932,-0.0373684449627411,0.0886268155791565
62,620,-0.0141044345626025,-0.0441953715942645,-0.0149865769625621,-0.0349202325554015,-0.1073881455812036,0.5849757144399677,10.20846382682648,0.1072598122704266,-0.046557560825374,0.1204709345579307
63,630,-0.0111481747143184,-0.0364575297232269,0.0028459742016081,-0.0567630466166088,-0.4114550603036879,0.1560703022729756,10.395362255722,0.1344703244855889,-0.0413983019589281,0.1278747727979385
64,640,-0.0095104885759753,-0.0490561775780007,-0.0048406671918145,-0.051166562563509,-0.3934155537356332,0.4416337170591548,10.384263840258765,0.087698398200832,-0.064179151079961,0.076762423141252
65,650,-0.010931274531482,-0.0421016512412448,-0.0180123523716881,-0.0534379910073015,-0.4083148763153114,0.422594753628734,10.201227901133144,0.0729953008329255,-0.0359824204243069,0.1324431424259975
66,660,-0.0075164350310552,-0.0475126597696398,-0.0034354024182444,-0.0509198745593152,-0.2390172352412932,0.5377892136218413,10.190161853643566,0.1189344487871069,-0.0376983700590686,0.109696033806835
67,670,0.0153962763564019,-0.0495072651247259,-0.0065192183916154,-0.0369247888930117,-0.4086713125665894,0.2749713504532425,10.409705109145053,0.1051997718908932,-0.0607235205517974,0.0655652412057377
68,680,-0.0215753136870848,-0.05999854315602,0.0043894754754369,-0.0470513988388723,-0.2262093017069769,0.3606714057863558,10.164278041607709,0.1020961281453468,-0.0505859957935112,0.1092171157586742
69,690,-0.0145402099380282,-0.0538069542982291,-0.009036482324634,-0.0408583319194927,-0.3270404004326876,0.4070210953222279,10.054190479665143,0.1042096512219237,-0.0571962042775974,0.1774297033114261
70,700,-0.0096697629624027,-0.0637675018300803,-0.0134875053525645,-0.0669517202465623,-0.3460715703828532,0.2603926730315356,10.200632126949102,0.0953030913655548,-0.028874068020953,0.1086551595744768
71,710,-0.0006144785877719,-0.0551496892656749,-0.0083126097242204,-0.0387683570428554,-0.1592297079795821,0.4781139991806504,10.209215180986684,0.0928277931483502,-0.0371263857180354,0.0954380536894875
72,720,-0.0185463057073415,-0.0593514716598561,-0.0180653282662984,-0.0534856379334971,-0.4328813727277435,0.4409096663729251,10.136396627499868,0.0888706847624405,-0.0528598189669074,0.1003789022702671
73,730,-0.0130905021802134,-0.0424916631646467,-0.0263403961003965,-0.0388199365223946,-0.3517298747810788,0.2925732206516978,10.49370713394232,0.0979934423328864,-0.0406097304766244,0.1429845906283793
74,740,0.0111390219301652,-0.0691823312466661,-0.0005919967049756,-0.0367828704217113,-0.3277586731947331,0.4318395586076607,10.369067864188414,0.096330930059381,-0.0485940013382695,0.1331076001853847
75,750,-0.0070232633659301,-0.0397481147789559,0.0067624245926553,-0.0387867473921537,-0.3489008373164608,0.3519389425252751,10.268076485085974,0.0984589091964691,-0.0626866824005907,0.0968553282353918
76,760,0.015779712066265,-0.0304147765211751,0.0057261599659561,-0.0264471576700824,-0.3642628323362644,0.427477988674301,10.347174633875571,0.0839340809542193,-0.0570682071825654,0.0511379495715364
77,770,-0.0009976993288973,-0.0480920286756701,0.0150740770760097,-0.0192762909715814,-0.4695287624362618,0.3453637649610589,10.307368753485544,0.0791597629115512,-0.0375224009985369,0.0950327538514119
78,780,-0.0040723558645395,-0.0424373489399383,0.0182035207732101,-0.0140447131254198,-0.3818492355099872,0.4292745896459708,10.368940089656482,0.0768517520192273,-0.0447829559073819,0.1884129326791513
79,790,0.0207764903278091,-0.0517812071061901,0.0075683850284891,-0.0351662024550475,-0.5060470557374337,0.2690880850291263,10.024591012207294,0.0799387101309792,-0.054034183516953,0.09041923930561
80,800,0.0133255641269185,-0.0351265174350117,-0.0027385634278688,-0.0370939488057972,-0.2925443256250534,0.3521737676321875,10.456357640367472,0.1472165123559184,-0.057920839132512,0.1279847939790983
81,810,0.0022231258029058,-0.0430054483399598,-0.0219864747698624,-0.0400344080824775,-0.4363830914071401,0.3113444911004223,10.382641872916013,0.1121119546840385,-0.0540715197418272,0.0885323032325051
82,820,0.0121336086923298,-0.0648168277992225,-0.0149436595166434,-0.0296199339015123,-0.2698241439951689,0.3751521435719538,10.336160326057186,0.106362324630868,-0.0480668657136866,0.1414992606921359
83,830,0.0246746754564647,-0.0573553174303808,0.0205692949810913,-0.0367203951791812,-0.3600396223534278,0.3419545948326117,10.347401069412246,0.0757543928082321,-0.0523494519332802,0.1887610373952385
84,840,0.0117556070470385,-0.0344109285963093,-0.0141981394918177,-0.0308017024631482,-0.1247163408442827,0.4543506300772701,10.753871390692764,0.1202600891504191,-0.0526459731071441,0.1547556197053498
85,850,0.0082807482545113,-0.0336875126402832,0.0109465432073051,-0.0310519857057354,-0.2779919625227658,0.2897141519322067,10.282387792305585,0.0750986240303104,-0.0575690227684195,0.1370934991388296
86,860,0.0139233279510842,-0.0307929156963442,-0.0086434845669517,-0.0243484139777969,-0.3924123544932613,0.315630366578847,10.380165276856824,0.1163444579525895,-0.0476196386417717,0.11019117099846
87,870,0.0046707695589275,-0.0378465717347044,0.0063427308288396,-0.0465465407105937,-0.1901947369646869,0.4919111642638232,10.027931566313256,0.1088469449133409,-0.0344121134751504,0.1370323932776924
88,880,0.003950691871314,-0.0264073416666318,0.0123201159972145,-0.0048557544379508,-0.2928943853850094,0.5901933253918623,10.13586401179204,0.0602092255062674,-0.0538348395362518,0.0998671779111833
89,890,0.0269069777058854,-0.0355965493491529,0.0206743451078327,-0.0267894393269357,-0.4081957028506042,0.4334022339515574,10.52202093858633,0.0780803441415573,-0.0636875186276382,0.162717186863495
90,900,0.008479135148201,-0.0406508156795603,0.0148530225778118,-0.0433938280505003,-0.2908178696818265,0.4484200958135749,10.337260262462522,0.072581368414284,-0.0394191212217059,0.1835137049006221
91,910,0.0393941038538173,-0.0302183695828445,0.0059247372890491,-0.0146210165238917,-0.3968555936466175,0.3482084280498109,10.056546483267256,0.1060120476723746,-0.0444301163899548,0.153826466923265
92,920,0.0110745143396311,-0.0209742788486499,0.0050048258323234,-0.0351893382350886,-0.4143819235397387,0.6619060343573973,10.500400748644894,0.0905976932680657,-0.0304133367075762,0.0968158362145782
93,930,0.0076466035525638,-0.0500696732433165,0.0221582934600368,-0.0566465972090262,-0.1667314100428429,0.4925406650852634,10.188611618842277,0.0958117632135781,-0.0433026348022393,0.1507139843325844
94,940,0.0298826980068973,-0.0516559954883273,0.0094976929008234,-0.0199337316727739,-0.374846294031721,0.408093919528367,10.082862242986073,0.0808184811847249,-0.0458540352053307,0.1443572946513132
95,950,0.0094397702943468,-0.0466666145751577,0.0084766806079671,-0.0220968130580917,-0.1554659308100006,0.179023819556877,10.122092486194456,0.0739596743473962,-0.045229641814078,0.1467688528255777
96,960,0.0042220698490893,-0.037876552991558,-0.0151421655074013,-0.0471006753776706,-0.4289406056855854,0.4722709307239091,10.25312998855035,0.085807633093523,-0.0516870869634378,0.0901474868964266
97,970,0.0367097070487793,-0.0262724909521402,0.0201035127159283,-0.0287631856849713,-0.3244827262008747,0.4431293393185885,10.088771877818289,0.0954944659057392,-0.067494255088816,0.1692854138167205
98,980,0.0132738462725977,-0.0250084659096656,-0.0119099634455918,-0.0203060325287447,-0.3442155347663382,0.4598243746986682,10.355619059950856,0.1082671470981079,-0.0399420124864559,0.1975425877854313
99,990,0.0125462710404999,-0.0463925391253855,0.0095997523863751,-0.0223059392340138,-0.5275346077232599,0.5339817975162614,10.126545929685182,0.0919715683498151,-0.0600541736810508,0.1271569909906764
100,1000,0.0191595012335992,-0.0316180979502037,0.0035623119680438,-0.0260779305702768,-0.2863044046583367,0.4870266552325391,10.517506889752685,0.0582625061664551,-0.026474775478745,0.0889105578807942
101,1010,0.0215887669596102,-0.046576376976049,0.0121504646648171,-0.0476700136287109,-0.1295528383783162,0.4230761727008643,10.33879771768337,0.1109462700652076,-0.0396187040842032,0.1396328000542989
102,1020,0.0162915246353435,-0.0388965741903593,-0.0170874268723229,-0.0345109586714073,-0.3571435806744255,0.5900935518394578,10.318965260478333,0.0602996858763014,-0.0578176511717859,0.1662107500236317
103,1030,0.0086529750131622,-0.0483508968962178,0.018699688233791,-0.0555731160134622,-0.2471809406831617,0.4159908187680472,10.438931379091306,0.103316018649449,-0.0440040024215165,0.1285043327025348
104,1040,-0.0078833279736454,-0.0494611720545763,0.0062871062817217,-0.0381566871323137,-0.2090872659251406,0.5559575044981433,9.936264649418742,0.0799084367260587,-0.054674720022112,0.1695280678781463
105,1050,0.0190880218460984,-0.0333651066558829,0.0225530776565056,-0.0584857403652189,-0.2881642205964129,0.5783665603132293,10.309425385980235,0.1099654766641335,-0.0598807720591489,0.1134093674012455
106,1060,0.0134543183990805,-0.0297685915957988,-0.0018827068319077,-0.0366464151810571,-0.3869454922345265,0.4928169698781576,10.396449118136012,0.0469501958289787,-0.0500062906654858,0.1587604238836733
107,1070,0.010033134977268,-0.0390100734479072,-0.0025914719278766,-0.0490162559192876,-0.3499228644058376,0.5402472725066911,10.24348340977032,0.0552666629617784,-0.0366244620824131,0.1405170627552172
108,1080,0.0144098024191377,-0.0306667964745156,0.0141201133275128,-0.0432943080456975,-0.4129745531528418,0.3958089057203455,10.164885972097762,0.0441308745042433,-0.049097669917695,0.1416162327790711
109,1090,0.0014413782801634,-0.0283022361258902,0.0075821687945858,-0.0175765400336985,-0.363077029847337,0.4929712345094343,10.245396435373264,0.0788909300237319,-0.0531350528079315,0.1397807173153687
110,1100,0.016662274185413,-0.0328126636285947,-0.0138253982331818,-0.0499458777422396,-0.4196158479432239,0.4094046438138873,10.172721802200382,0.0652731319139893,-0.0519750680434989,0.1005073681103419
111,1110,0.0362724724106048,-0.0330176834157987,0.0119297009618978,-0.0357035780838337,-0.3593036588252274,0.5499406998702638,10.125275695969508,0.0705846250757182,-0.0566741094555068,0.0719735385514615
112,1120,0.0228484537622758,-0.0331231610524217,-0.0039654498787203,-0.0489932431288986,-0.2057561444297026,0.3092931051913365,10.171250123543317,0.0485286642327919,-0.0512847087063411,0.1120770665825585
113,1130,-0.0018492831322222,-0.0487148869853797,-0.0202397837888279,-0.0216698942608592,-0.4754468903137584,0.3352784832108617,10.480697269903892,0.0972583484886004,-0.0577151258399648,0.1729509655618945
114,1140,0.0011018775084342,-0.0504924107409788,0.0176983454755725,-0.0500663055129181,-0.3388070366945651,0.610568561313738,10.218334030725966,0.0997906565891099,-0.0468858865597043,0.1424993625794688
115,1150,0.0018075832650191,-0.0604253752265564,-0.0122219504240414,-0.0440603207293625,-0.49529383451956,0.3873677355182155,9.786046682486049,0.0856265602876351,-0.0440552789375741,0.1879630147237216
116,1160,0.0096312578447984,-0.0546880580896845,0.0132862680819742,-0.0339387433186512,-0.1872023161621254,0.2713451410822365,10.120894020994385,0.0902670831953499,-0.058735354057812,0.1710746418002018
117,1170,0.0077315681600951,-0.0203577809286369,0.0010256087803376,-0.0304579329230373,-0.2483680833860072,0.4585019381751903,10.214230787519048,0.0477599155461318,-0.0599457828032613,0.1267839402028671
118,1180,0.0221923441297984,-0.0444532490875248,0.0236076665436882,-0.0279151785767581,-0.2500805099016538,0.4793146633509303,10.026771551929428,0.0550801187636944,-0.0427345794397516,0.1274444310504385
119,1190,0.0456481279464263,-0.0423698293689047,0.0309071014625785,-0.0283963730005867,-0.3152817882839945,0.4122520914381231,10.002610731593611,0.0488665292911116,-0.0438981661694509,0.1110581948720349
120,1200,0.0443775191888375,-0.0122997317643313,0.0303335230899828,-0.0153705307273676,-0.2230922909216345,0.49674935278643,10.07962386270508,0.0765317395413546,-0.0684378962804461,0.1146979044167788
121,1210,0.0194960968725988,-0.0650790502616785,0.0127253706849175,-0.0422196411713643,-0.3129728487112829,0.4510368986665393,9.987625133806628,0.0481297042523878,-0.0567145200251697,0.1216655649884021
122,1220,0.0062008584762232,-0.048335021723483,0.0066037433143364,-0.0309607707224432,-0.4032396619885849,0.4480219080267417,9.6570346252685,0.0434779321799728,-0.0536955728520493,0.1522771939479104
123,1230,0.0345256325231478,-0.0607629409471979,-0.0101548567902573,-0.0307416355325135,-0.3289698207253703,0.6111729634835021,10.062407745821067,0.071630037458362,-0.0535191966554124,0.1361354639040516
124,1240,0.0375918350753553,-0.0280418123002797,0.015174908830079,-0.0015284612789924,-0.2992559589528575,0.6479917766404992,10.217438935086486,0.0619840051926463,-0.0430199299441669,0.059102036608034
125,1250,0.0464323446064724,-0.0253219836762427,0.0223959262765487,-0.0007533828110876,-0.2551291145265557,0.5082063796696573,10.382961017196967,0.0894695380670286,-0.0231103541932608,0.1759704510444325
126,1260,0.0497533698229935,-0.0210526834459926,0.0458727073754858,-0.0018023793410804,-0.388766924569693,0.2575240486229668,9.81963686631119,0.0584145649836832,-0.0382366629513051,0.1437021992468428
127,1270,0.019536731808944,-0.0409361466760621,0.045677319031629,-0.0222348669073312,-0.3029280471982136,0.4502456936597067,10.22358155422422,0.071996077789996,-0.0510137775683701,0.1474828193938976
128,1280,0.0159669942280074,-0.0345227797822876,0.0176642477781331,-0.0053681802097575,-0.4479594475070244,0.6280160476017185,9.895011764690269,0.0604756183101451,-0.0426231501118224,0.1471612820062612
129,1290,0.0395875793068269,-0.0375219574964998,0.0356709960775449,-0.0181269656725168,-0.3173604482019446,0.5426522663315589,9.680220864759775,0.0896133758239534,-0.0694352081629074,0.1578452156030957
130,1300,0.0473391725931377,-0.0070000236137815,0.003740847473121,-0.0210584177874966,-0.2465598042935578,0.6240424472761987,10.156358872622338,0.0194350841364432,-0.0515427346839428,0.0884874643721884
131,1310,0.032044617825919,-0.0230421049383296,0.0372435476340558,-0.0068225960231394,-0.2670919051899483,0.4883096234294054,10.076757742184911,0.061603537856834,-0.0498536046025918,0.1663556298556049
132,1320,0.0262764946993904,-0.0433389513102416,0.0032272028567207,-0.0370264305693995,-0.2195010656784526,0.5438801040761336,10.206214086960658,0.0682770715512324,-0.0263879020176338,0.1779056693576945
133,1330,0.0470235246338334,-0.0097256148844265,0.028508504257985,-0.0122162000382911,-0.360390656272756,0.4837440834539745,9.995265961501625,0.0753112819160154,-0.0586715844580775,0.1805472008413259
134,1340,0.0519452735516028,-0.0057614309118696,0.0251889593681385,0.0056200138445848,-0.2951347236586985,0.4828934592362061,9.95942888682896,0.0603318241437911,-0.0363087333371538,0.1126984477135844
135,1350,0.028614733718907,-0.0142807206508068,0.0551958181600963,0.0042646246813951,-0.3449520536025526,0.4191351824522225,9.872466033709667,0.0935324730106675,-0.0596213643410137,0.1527125582127325
136,1360,0.054689716383091,-0.0194343868241073,0.0446832513786962,-0.0124500015440374,-0.3513715322107492,0.4719479468870856,9.851765342244002,0.042755035815845,-0.0307553086944187,0.1768862778261427
137,1370,0.0620912041796814,-0.0283330392178478,0.0193408740715349,-0.0254285221338586,-0.3598271860864895,0.5995680670392347,10.207533746026032,0.0474531135458158,-0.0549123143445093,0.1207433288775072
138,1380,0.0509252592790029,-0.0165320600685149,0.0230655031225866,0.0011004605283685,-0.1858629982399915,0.6429072621555556,10.430403613723096,0.0534169503762379,-0.0243774818523635,0.1586095259912081
139,1390,0.0314690971582692,-0.0183360488578904,0.0367964994024953,-0.0166530338056565,-0.176483161960632,0.3389135514087815,10.04629786820984,0.0480449476501624,-0.0482945772114112,0.1506947734457632
140,1400,0.0520720586340957,-0.0194926023562181,0.0380307481976531,0.0147858891405838,-0.2196222012711539,0.4194817342479787,9.771987781558735,0.0526666849789033,-0.0560033841776342,0.1249658297182853
141,1410,0.0404114158010593,-0.0243269253846158,0.0380906745574351,0.0023305013343933,-0.2868829018308532,0.4468750978655129,9.64954064890013,0.0444061842406543,-0.0430556874490838,0.1245305703887211
142,1420,0.0559503659146298,-0.0218281093723961,0.0468124807263757,0.0058770807621626,-0.3638074904692047,0.3034676301848694,10.097255382414158,0.0697879794413308,-0.0347275144440891,0.1433654709064541
143,1430,0.0439263280937285,-0.0065982400993965,0.0274770903005382,-0.0076105830173442,-0.3679908482199597,0.537983118919757,10.195837609266816,0.0937513836203754,-0.0387334494350025,0.1346002009524748
144,1440,0.056744204570046,-0.0049610932477315,0.0640251473159672,0.0068800428358624,-0.1000061183478938,0.5002763324162472,9.838933611915245,0.0440389383353965,-0.0413288863683624,0.1644324958396716
145,1450,0.0513675420078486,0.0093302286038281,0.0356652174430057,-0.0010948215390796,-0.2981653921117515,0.5104876357411609,10.060368770598163,-0.0002672913861998,-0.0515622455530383,0.137778802876276
146,1460,0.0548245723563611,-0.027962255241324,0.0387974429271468,-0.007858805902297,-0.1235536294888504,0.3383640620519434,10.217961032414037,0.0472182950251326,-0.0501852186220587,0.1322178711495426
147,1470,0.0438952866470605,-0.0118909660651787,0.0556405542170979,-0.0070195115175549,-0.2552105160548027,0.6413662504781844,9.961677159338294,0.0515829156692786,-0.0384144652493346,0.1365255535920558
148,1480,0.0415929535027783,-0.0007383481818736,0.0448227881562821,0.0018890539936326,-0.1512794381081106,0.5979828911625155,9.977795529055944,0.0567682950970509,-0.0457663729828753,0.127151362591459
149,1490,0.0497740164713311,-0.0223123095632844,0.0246797503043792,-0.0096070699131057,-0.3188172493963841,0.4714840335599436,9.651276767335952,0.0137498786178794,-0.0159202319793883,0.1666996051013092
150,1500,0.0541241780599243,-0.011869083226478,0.0541920429205053,0.0021626755356341,-0.3563527844411047,0.5695962998661049,10.063614095901135,0.0203598271080378,-0.0556446874177021,0.1805430842642175
151,1510,0.0376340389107409,-0.0182530218833951,0.0335575363034719,-0.0038285071004946,-0.2132235578446062,0.4820097323595531,10.131144579606604,0.0089496618173738,-0.0437247202438196,0.1743546800878631
152,1520,0.041001475623842,-0.0336296694908656,0.0445045542578651,-0.01301632740847,-0.4131271764686824,0.4306024629988672,9.907079723692496,0.0581072095709788,-0.0321128630145607,0.1662407188795516
153,1530,0.046030535811443,-0.0123331943173962,0.0489782136953386,-0.0075839341819311,-0.2159564919496899,0.4704920368302969,10.15805597800147,0.0408872712341401,-0.0576685974333878,0.1511009501264107
154,1540,0.0407816759528323,-0.0372680940928932,0.0155168619592101,-0.023125577150932,-0.2587769510866011,0.4098877178469523,9.85590632733293,-0.0149605308360714,-0.0322697055727345,0.1249613540188156
155,1550,0.0324451453876132,-0.0115690158617529,0.0366098427686612,0.0012102294240221,-0.2089848968645943,0.4113928502197033,10.10440827945852,0.0378469200510752,-0.038663751566478,0.1681313461600693
156,1560,0.0393463729844628,-0.0173401128601225,0.0486924296178948,0.0053834776864952,-0.3219177344232257,0.410631075760189,9.764766863046727,0.0162325273820199,-0.0271058239962577,0.0998697453650636
157,1570,0.0581583260291827,-0.006543765320951,0.0305862532193732,-0.0073049214074202,-0.3756678370155061,0.5378862189447583,9.967778013491053,0.0266996758050909,-0.045839309589618,0.1652719135620588
158,1580,0.048558696748573,-0.0321504022337233,0.0324024093947698,-0.0118587153041095,-0.0822189805149512,0.5159994892453438,10.294766406373476,0.0356885636496677,-0.0441966556571852,0.1766265679210191
159,1590,0.0231282504458049,-0.0465002293898856,0.0313306021142006,-0.0248838350351325,-0.2135889715633767,0.35249415255482,9.949716941702428,0.0296443627392087,-0.0331749224079613,0.1381247729349365
160,1600,0.0383336147268155,-0.0143942178077728,0.034864911288104,0.0117609721003671,-0.3999662570387462,0.6725628388779612,10.129201693891716,0.0174432292771562,-0.033389157437869,0.1672505398229769
161,1610,0.0479784827631583,-0.0313838763171468,0.0061677419399362,-0.0047498580677903,-0.429764802152232,0.2881877341015331,9.650185878695725,0.018405830124419,-0.0268714506911857,0.1712923554029666
162,1620,0.0447617101811014,-0.0219753311597391,0.0425368793826057,-0.0246702974213277,-0.289250792980588,0.4667431344499574,10.010238517592882,0.0508295823659211,-0.0420028717607063,0.1491937769303505
163,1630,0.0392258931577834,-0.0404765143801035,0.0280362277333238,-0.0450633294326181,-0.2602358153949232,0.5768734067106783,9.752508991095496,-0.0132007297153937,-0.0374322670797809,0.1737144290989106
164,1640,0.044116639022062,-0.0196565220995793,0.030244670477979,-0.0302838323338612,-0.2330169810954024,0.4511491539759098,10.166625938013413,-0.0061650479002858,-0.0329178532940689,0.1475683789647623
165,1650,0.0483856959418123,-0.0216598511318633,0.0323255900351152,-0.0153264360924859,-0.2831961276476359,0.5551798335820101,9.87110579519959,-0.0099778840045211,-0.0339184339925709,0.1486059200841292
166,1660,0.0188976323238198,-0.033881852670357,0.0159832718348413,0.0041484532874751,-0.3908981748907909,0.4928930555112709,9.833349990404646,-0.0056181567857353,-0.0407087751666181,0.1084550864633759
167,1670,0.0172073947307199,-0.0513949108561809,0.04119527405708,-0.0387215683024788,-0.1094330518658127,0.4537221841455376,10.146667084429067,-0.0068145284633002,-0.0343602208048643,0.176070384692263
168,1680,0.0201955074580764,-0.0417846137928896,0.0391522611868132,-0.0056717330022694,-0.2983089940277623,0.660092132466319,9.806440723961218,0.065694150179225,-0.0385911340893018,0.1330713770961984
169,1690,0.0357892837874588,-0.025444132615648,0.0233856700263335,-0.0126526928996094,-0.2639268442856586,0.5559198554693434,10.219273340896908,0.0112448087808237,-0.0440617664178406,0.1837178131846664
170,1700,0.0396718402992984,-0.028436328720268,0.0449139701915427,-0.0107172297593231,-0.1136181702776748,0.3938134011524352,9.89322948189014,-0.005518342623286,-0.045180300539997,0.1447902487505646
171,1710,0.0414940757427965,-0.010118708666201,0.0250201732278423,-0.0117171123744716,-0.1256102263086088,0.5451668003117247,9.972558790670346,-0.0145548686880403,-0.0536601309933052,0.2029863640152436
172,1720,0.0547967061843285,-0.0191710168085472,0.0221158272088697,-0.0167422579955903,-0.1668496528338555,0.6257454377828789,9.77515628208032,0.009762546192647,-0.054829805498463,0.1978227425271155
173,1730,0.0247325566138775,-0.0216576444598755,0.0111536195542181,0.0080254582465372,-0.054580652018286,0.4039816100774105,9.911303047080036,0.0140751068494587,-0.0390248889843299,0.1941205227862861
174,1740,0.0538980940032828,-0.0242773983468902,0.0364541516006788,-0.0033699779300103,-0.1120130497654305,0.5083780567111335,9.865520202851693,0.0032346236562843,-0.0305429313441131,0.1227271012401779
175,1750,0.0462423369459566,-0.0005310497836436,0.02449325510796,-0.0141518946166457,-0.2024246395155852,0.4390558039094645,9.862701998160228,0.0122831147543377,-0.0196258282796462,0.1607043098160581
176,1760,0.0440674419229798,-0.0101131303681696,0.0303557195150586,-0.0106958508671123,-0.3037633982480097,0.5235714641624212,9.658556464207535,0.0052245811073446,-0.041591585153828,0.1290392460327576
177,1770,0.0505559920885867,-0.0067258841914609,0.0462240943490711,0.0095600634724913,-0.0427884424039396,0.3646580835265853,9.786219414675996,-0.0183059736103621,-0.0392459610146804,0.1310828953380926
178,1780,0.0538260697661203,0.0098221685417374,0.0382628126694337,-0.0047411869311153,-0.1539363920352687,0.5478320411321791,9.512495080463095,-0.0170647162705007,-0.0394779287781926,0.1583991456544268
179,1790,0.0508755326680721,0.008524779357193,0.050252837319212,0.000930518690347,-0.2376414371132158,0.5312674488616588,10.118953082088638,0.0237221086970191,-0.0203308425615059,0.1762714939897511
180,1800,0.0350097210040309,-0.0105019772733322,0.0383875296454064,-0.0061428113658652,-0.2220480604692771,0.6650720798745553,10.035676572988756,-0.007929845147488,-0.0285038971543819,0.1590863411344848
181,1810,0.0397713180731039,-0.007382770294327,0.0374946672440992,-0.0074169968554738,-0.239824492131796,0.4783930892193215,9.564129850688577,-0.0309228547516607,-0.0322773880305049,0.1450281173801301
182,1820,0.0576988115492035,-0.0262846015324093,0.0428391443486284,0.0108980374689003,-0.2495439263300372,0.693999282483886,9.830318695311966,-0.0216971672633149,-0.0274515624493736,0.1760766220725277
183,1830,0.048991718257321,-0.0141033307938265,0.0436824072338825,0.0126094784837563,0.0080524030187921,0.5726595286398638,9.836188357079411,-0.0256169207215014,-0.0415568892901654,0.1837663394570069
184,1840,0.0471235874123006,-0.0121066775251423,0.0650465222085478,0.0136407575263276,-0.0213985977633039,0.4622583097064731,9.593009055192343,-0.0195813744648297,-0.0307035784894996,0.1627025956254199
185,1850,0.0754447215566768,-0.0210851289852991,0.0877374414509066,-0.0051774363878603,-0.338210877823256,0.3289224734827439,9.553537436817352,7.411908342024216e-05,-0.0379924549602897,0.1445271856028985
186,1860,0.0617074718607449,-0.0022538002653624,0.0620860159284282,0.0178215794988412,0.0917360530952313,0.3175387817628322,9.527350262253565,0.0204720435856788,-0.0267335043475085,0.1320651564355237
187,1870,0.0376194664582475,-0.0035567518427838,0.0446897219484243,0.0095782841957766,-0.1537279163189833,0.5359157389413207,9.707471547777317,-0.015538334795233,-0.0390784705887775,0.1532672851977298
188,1880,0.0565683398102141,-0.00414866103374,0.0497290624125033,-0.0069601095481868,-0.2034060127324965,0.4421658286130698,9.539428996272983,0.0046227408956894,-0.0224572103526006,0.1500268014025829
189,1890,0.0688293267255827,-0.0020518152518814,0.0504724054824932,0.021876805809559,-0.1824291450744354,0.3654189095318733,9.898074415322275,-0.0228694533271456,-0.0482590458048504,0.0889799500952175
190,1900,0.0587670016131601,-0.0250947998931444,0.0493094012632568,0.0143399169960812,-0.2959816211570811,0.4445113484688971,9.945836666600606,-0.077827960450749,-0.0362528823445433,0.2211720294115727
191,1910,0.0766202217427761,-0.0220247199926678,0.0570862427730956,-0.0037303843165606,-0.1192645760612477,0.4027263976850753,9.550836763002907,0.0073688832441666,-0.0444714582982946,0.1525898620508043
192,1920,0.0464130514113258,0.0090682263133925,0.0714906603005704,-4.202515342189087e-08,-0.0986197434487635,0.630301527110476,9.467728639593222,-0.0506006473114188,-0.0110159539186395,0.2059983431780847
193,1930,0.0603907536580224,-0.0110992142664492,0.0586882378178402,0.0100190662816595,-0.1310850041324947,0.5258312542132734,9.58387674453503,-0.0335224278695538,-0.0287306278608762,0.1034620050818219
194,1940,0.0384060359298562,-0.0059355128512522,0.0323177738269712,0.0029686824877773,-0.4097993079806737,0.4611840319955053,9.748659932316624,-0.0258927050572437,-0.0240104748445634,0.1388687902915226
195,1950,0.0450343132738148,-0.0249637813469724,0.0521753407564227,-0.0132828139639886,-0.1338810069170571,0.3947024358408274,9.452512091489847,-0.0087341223182074,-0.0263274417262393,0.1020820821079006
196,1960,0.0481234378788073,0.0243082067227217,0.0614097074490257,0.0236139975384325,-0.1304296490733526,0.3857130395957492,9.34562902474862,-0.0158954731964333,-0.015020000873716,0.1483766756371964
197,1970,0.0819511212140879,-0.0022693645242061,0.0550050648128021,0.0170442623116524,-0.1371949522320309,0.5546006973801563,9.691420936929225,-0.0081419664200734,-0.0192104196877664,0.2012128578707084
198,1980,0.0426818391618792,0.0133351636475484,0.0550312293452118,0.0077050398493003,-0.308702412478033,0.5650265518450481,9.614382491233888,0.0152366850178637,-0.0293420054269327,0.1172316215044262
199,1990,0.0537748998206856,-0.0105397808807486,0.0256314298025347,-0.0120440222756947,-0.1741359400763223,0.5114785566738221,9.698615761806474,-0.0283434585552482,-0.0269125525065583,0.1507469425490047
200,2000,0.0535836365237843,-0.021164323331943,0.0542132003987857,-0.0157904072597278,-0.0917329488561718,0.3936922219836721,9.715240888659494,-0.0514426718041975,-0.0350352151311218,0.1430276727744084
201,2010,0.0486361478988759,-0.0234127208554785,0.03440928888686,-0.0006952345677781,-0.2419726679008113,0.6685267435225397,9.433204174463253,-0.0452010150190478,-0.0237100108323918,0.2026837660688922
202,2020,0.0599494329993679,-0.0123060503949072,0.033065348897514,-0.012442832624083,-0.2604916160113311,0.3864606237824975,10.135646778499142,-0.0400487112582154,-0.0130054788999403,0.156376783829422
203,2030,0.0260325571247,-0.0189048533299564,0.0351817877621915,-0.0177348716592563,-0.1653816743171706,0.4617229558556374,9.913540485976071,-0.0187480468135459,-0.0157702737465824,0.084953116686706
204,2040,0.0452632496756996,-0.0135144440627963,0.0264582135548028,-0.0330088643053647,-0.1407031992958143,0.4982979690926427,10.091729453471928,-0.01129090681814,-0.03360412320637,0.1120184186846947
205,2050,0.0372592176535625,-0.0248686374525384,0.0178418432775245,0.0060465114551353,-0.1489380073544828,0.6766669766330217,9.378516418977895,-0.0371707462209999,-0.0189383421438996,0.1842932956415371
206,2060,0.0371207604008951,-0.0243035949944376,0.0444470371429738,-0.0122259020406407,-0.269160004819927,0.6047288427477501,9.561564495707035,-0.0427096774231863,-0.0272046682445047,0.1607310452456611
207,2070,0.0393782087414296,-0.0270403046843992,0.0280872019204215,-0.0216408979470679,-0.186207206609875,0.4297946219161658,9.743496404628331,-0.0374692828529308,-0.0213600660823003,0.1358299672563764
208,2080,0.056896773228454,-0.0233646584186223,0.0248575644399278,-0.0148822014512315,-0.1468616474380423,0.4459989241019256,9.585593900923582,-0.040893772971364,-0.0259783245343063,0.1710122588459384
209,2090,0.0187988788034962,-0.0334094644500346,0.0178449793764019,-0.0377925192119488,0.0170953533664363,0.5230747425317619,9.452512179043003,-0.0405917496512847,-0.0147014640757699,0.1846632902933703
210,2100,0.0175291363435282,-0.0380686129143222,0.0074609686644115,-0.0435967936436219,-0.2526015949285152,0.5375744047858007,9.727688308838797,-0.0273787886505518,-0.0210176086858437,0.1670090458972724
211,2110,0.0340956711884085,-0.0365121107514279,0.0090000686811931,-0.0483214512528901,-0.2074723672643428,0.4765493719099408,9.50179284586171,-0.0468747184206642,-0.0317871214299153,0.1567014466899641
212,2120,0.0290734065585734,-0.0180665206521004,0.0029849781866067,-0.0286624548776871,-0.0105860272160812,0.5801620365661363,9.386750252160963,-0.0232341452027979,-0.0162144322519058,0.1155697259200313
213,2130,0.0267514526357352,-0.0266535765118203,0.0179868282479194,-0.0249233584247296,-0.0363729664089551,0.4795293051221814,9.440320853674146,-0.064569001428193,-0.009503841928758,0.197818040626367
214,2140,0.0234738931259651,-0.025726733024533,0.0364337247099378,-0.0279742277354472,-0.1232543656500129,0.5437329422246957,9.360777495026184,-0.0728584702646912,-0.0351520473608355,0.1943071063852696
215,2150,0.0582287560152034,-0.0173184622665417,0.0461534543914357,-0.0181326973749583,-0.0201204043819793,0.5299021866499639,9.576323017758344,-0.0317710294394733,-0.0074005176323901,0.1762922872492162
216,2160,0.0198859910183273,-0.0249580123316042,0.0110110513218736,-0.0454566357408786,-0.1676881953913315,0.5498158249572157,9.332719800292738,-0.0475108278412454,-0.012611299747285,0.1646424672386182
217,2170,0.0310410111976439,-0.0406945341313047,0.0197531112136291,-0.0281345999527436,-0.0273271362053625,0.5372603345747303,9.646797652538137,-0.0187328917990527,-0.0318160630067402,0.1397592462191912
218,2180,0.0265729288049796,-0.0356407337041635,0.0190097030659287,-0.0174209186291112,-0.2050631169289707,0.4405048687415441,9.12952705005656,-0.0257462323942802,-0.0073558817873731,0.0642998759613149
219,2190,0.028765326259314,-0.0456211795422878,0.000988500067648,-0.0285489666882694,-0.1358411110551873,0.5026103877820574,9.46712749338265,-0.0457018024228225,-0.0030998193516142,0.1807272462930757
220,2200,0.009802529511552,-0.0224722472982771,0.0034895630043411,-0.0327497285467354,-0.1885991058613583,0.6013518431101461,9.470879829024762,-0.022474372834408,-0.0172225464762802,0.1732582125092822
221,2210,0.0226598748250501,-0.0204384220411995,0.0065414793304171,-0.0162353206364285,0.0445438777244412,0.4162969575903532,9.420148575699514,-0.0209421596163143,-0.0256523877164812,0.2207231172016206
222,2220,0.0144064356620097,-0.0465825920297972,0.0382652283822078,-0.0230129720105792,-0.1637940972207245,0.5332220447011476,9.473442516973572,-0.0588940445387839,-0.0079654408211344,0.1436141026550417
223,2230,0.0235559055232455,-0.0321819726504524,0.0181695134083659,-0.0292058734814569,-0.0979835483917292,0.5449118860408843,9.404819884251262,-0.0513640829468074,-0.0038128186252468,0.1260324895288785
224,2240,0.0339369518133818,-0.0392779204787463,0.0075743438303934,-0.0143563216269926,-0.0392189627785503,0.5510919153916977,9.62899600408857,-0.0352439391665545,-0.0132675867618465,0.1611986406034877
225,2250,0.0261347450596397,-0.0222899089321329,0.0394825984882879,-0.0424959603589685,-0.336202368755072,0.4784254621657964,9.593636798310698,-0.0532903182501314,-0.0161278883022541,0.1324328577869532
226,2260,0.0238015840606429,-0.0340967625175113,0.019160122322592,-0.0233636138357273,-0.2020180804741491,0.652562896813371,9.327862774011408,-0.0376463982014971,-0.028136387272641,0.1329934634265182
227,2270,0.0398330108444078,-0.0378856970808872,0.0316932964255678,-0.0054869569702002,-0.1794967625915688,0.5261717151351973,9.269594533387597,-0.045252262536397,-0.018975001964915,0.1262468144032472
228,2280,0.022451942160468,-0.0365935153665904,0.018517800884944,-0.0140903394059134,0.175639458879521,0.4821253967522018,9.35353817327506,-0.0495097127303807,-0.0084480918424463,0.1167691297105016
229,2290,0.036487673119977,-0.0293930886952624,0.0277220081970491,-0.0394678219497361,-0.0728126953894179,0.3403732964633874,9.449696564924553,-0.061837801295847,-0.0199937087827144,0.1656897438198867
230,2300,0.0153780407948724,-0.0207969552617966,0.0202680444055238,-0.0259825120042142,-0.0042759391612415,0.5458933279908958,9.211885015332332,-0.0251840985878262,-0.0111038887511774,0.1543816595848855
231,2310,0.0369201973512985,-0.0294805191886021,0.0155456469706806,-0.004695168592702,-0.1275665975499788,0.5698291410488021,9.40891539067209,-0.0731936363963471,-0.0181869266359398,0.1410729819157233
232,2320,0.0273364736115507,-0.0236901494549775,0.0322881931069801,-0.0270610562324162,-0.15995346094972,0.4952355220043766,9.754407169641752,-0.0587911059330586,-0.0244968263265288,0.1263210454369241
233,2330,0.0403130306006617,-0.0133783568170266,0.036580959192915,-0.002356711462025,-0.0635860705282298,0.4076935445726895,9.968418807972894,-0.0976465808172293,-0.0250087245308058,0.0979750578362699
234,2340,0.0203077797719658,-0.0096966024593611,0.0169979720818616,-0.0208002547579205,-0.0814671902167448,0.4499557958678049,9.760842441038582,-0.0294079269797399,-0.0086954009386076,0.1421279780501738
235,2350,0.0166612104990132,-0.0438419083543292,0.0155644336382792,-0.0127869071734391,-0.2220191123316405,0.5204432485276331,9.54536994538845,-0.0764760631974262,-0.0172384398640518,0.105706818115172
236,2360,0.0264370977015143,-0.0326083119731842,0.0180874376844636,-0.0128656665941314,-0.0737921037645689,0.4952204229597797,9.70508562248392,-0.0544294296144697,-0.0171281172369268,0.1810937106047414
237,2370,0.0309743821460509,-0.0206747316348293,0.0444205656147859,-0.0245437385485677,-0.1232046988167309,0.4014233419806525,9.569047053563644,-0.0682079374994394,-0.000851337682359,0.1474286989592838
238,2380,0.0393617304862817,-0.0390070353666678,0.0201712818448938,-0.0320593393672803,0.003616616076484,0.4923776265984684,9.56775395170698,-0.0651992302788409,-0.0414471446402293,0.1802498910494382
239,2390,0.0504801140768829,-0.0116917410233229,0.0277355079597706,-0.0122216254349883,0.1726055640186447,0.4205134792981252,9.552588498911105,-0.0332372113626123,-0.0154235690809497,0.1005947603344825
240,2400,0.0463637979045968,-0.0068491863336534,0.0405277241368062,-0.0119354382940238,-0.0637223670957592,0.5302411271761787,9.785944272437776,-0.0301455274611344,-0.0169571681736359,0.1208636961636684
241,2410,0.0261251986812632,-0.024419035531745,0.011572070054703,-0.0402791791792794,-0.0038552344453176,0.4611975529948967,9.36949535663065,-0.0897161729075373,0.0035610702538573,0.1287256080878036
242,2420,0.0332334034371892,-0.0356687542591938,0.036633756623998,-0.0334088261311821,-0.2190146803017165,0.575160574421943,9.219275618003936,-0.0503508130542915,0.0047703032848324,0.1122420070893242
243,2430,0.0300118735612843,-0.0247988379834959,0.0342020633695011,-0.0195600389604632,-0.0080189923960963,0.4348089917941028,9.36691880867884,-0.0732703988644796,-0.0007296804515392,0.1071961853976622
244,2440,0.0160594476948859,-0.0194242038508981,0.0271395319458774,-0.0213410344288573,0.1130655378411676,0.3578268659749263,9.280316425338858,-0.0576569076760054,0.0006361313155051,0.0999157279435342
245,2450,0.0431925205278233,-0.0286902183127052,0.0228569042851409,-0.0236569109389932,-0.0922404006638922,0.3910131510405752,9.20832547757503,-0.0983024589225894,0.0038244783857825,0.154763471274357
246,2460,0.0199904962005685,-0.0350902600500376,0.0086162887021082,-0.0311635346779778,-0.0210245995657256,0.3876419176567511,9.435847279974476,-0.0374105109610125,-0.0046186351254318,0.123782150683386
247,2470,0.0207023351133805,-0.0359836620330019,0.0077083383347803,-0.0156878676861129,0.047937709826849,0.4508435245388585,9.685293333626843,-0.1288805678441783,-0.0204269172630095,0.1904284938496224
248,2480,0.041906306884266,-0.0323648649379878,0.0182278121992791,-0.0043816499101812,0.1989386668934035,0.4190212813540379,9.39634696939756,-0.0693653199154056,-0.0025867448438868,0.1222857496474899
249,2490,0.0171385624074233,-0.0409693296144262,0.0064638564358716,-0.0254574324235254,-0.0249877965143793,0.5538986426269878,9.396609645623816,-0.0939450302313956,-0.0063178559135469,0.1453911956539192
250,2500,0.0256875781837187,-0.0334697189263986,0.0208828721081635,-0.0423535421098217,0.1475104779902013,0.4213618518586135,9.433869188429576,-0.1331320394120117,-0.0049881012107513,0.1178825736080233
251,2510,0.0282233915945456,-0.0441343541631502,0.0060867348405004,-0.0334832724380413,0.0776103689078814,0.4749533311976999,9.17711131114512,-0.0798183407185064,-0.0095972220696354,0.1203132808367759
252,2520,0.0313181220611926,-0.0443960592958322,0.0003139629608175,-0.0270158677245602,-0.0327842934265421,0.338788737369426,9.303683678979638,-0.0345413619174915,0.007850306710615,0.1148398410707293
253,2530,0.0123095509192372,-0.0601668654079327,-0.0096172725888351,-0.038598596709276,-0.0882753026426884,0.3836881311911044,9.451324043755314,-0.0769358447813988,-0.003128503081115,0.1567893243292464
254,2540,-0.0011070854604479,-0.0630171615272288,0.0052052365884983,-0.0609703275619152,-0.0114467786291795,0.5177391853159569,9.145297129930224,-0.1141613718426737,-0.003110554688451,0.1391420106773738
255,2550,0.0145436497343678,-0.0404820412622565,0.0022465250671636,-0.0402184599426263,0.0763253303980552,0.3746076429727828,9.195136951398965,-0.0736775845445235,0.0026569254518788,0.1480306896615755
256,2560,-0.0008411617153665,-0.0457025843960848,-0.0039821452545704,-0.0399178179939825,-0.0555151280023935,0.4249808300635604,9.38364814541188,-0.1001947139483248,-0.0064761272927482,0.1441097243703818
257,2570,0.0134256897114192,-0.0340560554497628,-0.0051669611824995,-0.0545790878595768,0.216887484433229,0.4346317247858543,9.380621301086558,-0.0902610897454539,-0.0367962922559714,0.1818516075563112
258,2580,-0.0067182545972774,-0.0263900607191962,-0.0011997520397401,-0.0492354718481813,0.0591479407762201,0.4162780153891406,9.287153761176818,-0.0755787117319963,0.0023047521211972,0.084291166823078
259,2590,-0.0109964805228292,-0.0635451787062089,-0.0021752641085313,-0.0630278126271826,-0.0168950266411011,0.3937811078125107,8.976766067786592,-0.0859798305044492,0.0125466009156419,0.1758176666856537
260,2600,-0.0089318406642482,-0.0672197276612041,-0.0228186142962977,-0.0590209042669033,-0.0319555012298605,0.2769155667504438,9.185367581777086,-0.1152434561978987,0.0138420981399001,0.1433121777813391
261,2610,-0.0060217710452513,-0.0657872205796865,-0.0184232530860283,-0.0680816108850834,-0.11559162689005,0.4086235057650637,9.26927033026916,-0.0996879254637912,-0.0194658480561464,0.1035092415820358
262,2620,0.0211634852520678,-0.0507409645393886,-0.0040349958054138,-0.0399930898063837,-0.194437589599314,0.5418094276984098,9.10951624355414,-0.085354374152109,0.0178898737422436,0.1153464318637707
263,2630,-0.0136320153726478,-0.0484229074694828,0.0021878943666797,-0.0292197192204813,0.0047606425363584,0.4417338012618528,9.329659866829514,-0.0727502624925865,0.0148711123217395,0.092042293854882
264,2640,-0.0046855443576719,-0.0518189725342783,0.0001137738179179,-0.0475558144880283,-0.056810788986403,0.4312948115336293,9.492452041797812,-0.102878289845534,-1.3891871754295303e-06,0.1341274679181931
265,2650,-0.0106105823795336,-0.0705118412057175,-0.0065343552547738,-0.0571515493993516,-0.0943250003864998,0.3669662419915336,9.472896419997772,-0.1117588506011682,0.0021260174683463,0.1036934087874275
266,2660,-0.0048160226372954,-0.0348892237838903,-0.0259173349456007,-0.0542905369240618,-0.0978991147027101,0.4816216529197888,9.120703068640434,-0.0633429921559158,0.0175558886382833,0.1453738756887872
267,2670,0.0030633143457873,-0.0593762427245409,-0.0197979053285165,-0.055548853075716,0.02705891929993,0.4130283148773593,9.426735015227145,-0.0780705475084696,0.0155492144904585,0.1299801199423987
268,2680,0.0149076575433725,-0.0600500951577671,0.0228880760161086,-0.0522416769144161,0.1363558077819618,0.3781499722523841,9.575492195288197,-0.1210594084037895,0.0003834810311113,0.1348608626440899
269,2690,0.0093624476305411,-0.0473855058209329,0.006730618740253,-0.0540260520517131,0.0155101101316564,0.5127395901386191,9.182872185774563,-0.0972394366071458,0.0178312206052157,0.1417721718543151
270,2700,-0.0011042470084437,-0.0476174735261336,-0.0047281574007679,-0.0433095458774124,-0.0984510976952357,0.5291299995177762,9.365783890428231,-0.1073439799954562,0.0014017287801142,0.1229675493390891
271,2710,0.0033626216723601,-0.0576169957509962,-0.0047682060465167,-0.0482183814791587,0.0125577413562113,0.3373698605421421,8.996474363540738,-0.0679019921653648,-0.0057242830012861,0.101001631873583
272,2720,0.0008972709139064,-0.0511118061435977,0.0022500496134965,-0.054592428601748,-0.0190857335790238,0.4585723340441343,9.191125546508385,-0.1093454985909173,4.390716871811775e-05,0.1681885308559887
273,2730,0.0217821726764056,-0.0410005579824308,0.0074604700694526,-0.0449905022110989,0.0833373035742796,0.3535893132972756,9.51747615373212,-0.0892973743596731,0.0003733102095102,0.1242768082536125
274,2740,-0.0026302571581108,-0.0433119676545239,-0.0062459766954925,-0.0586554122933295,0.0203552894609976,0.357654197234625,9.298526121836428,-0.0513402559476629,0.0104107482799455,0.1047944202836722
275,2750,-0.0160493749853566,-0.0415976645014646,-0.0281858660433879,-0.0598914898145618,-0.1586199568172251,0.6636671629573876,9.215283821759217,-0.1155100173700736,0.0109589679981647,0.1200370372110954
276,2760,-0.0059950925334308,-0.05011316191019,-0.0133562297541197,-0.0564833872025596,0.0514902841386429,0.5523523472565919,9.506324890735772,-0.1055111005618135,0.0017945916210952,0.119638333464624
277,2770,-0.0058595878194938,-0.0415122509843858,-0.0085900671308269,-0.0359895921316655,-0.1726506323628754,0.2828439664648325,9.399609077667336,-0.1167919082592103,-0.0018468302196935,0.104285135260277
278,2780,0.0190150966251287,-0.0464737799488612,0.0104617245822459,-0.0446082750569749,0.0409145847812807,0.5282304124084625,9.278126874108914,-0.0918136626794134,-0.0016370976487588,0.1501790956496501
279,2790,0.0011481959859525,-0.034060827523756,-0.0019708829366093,-0.0424442742166055,-0.0178856446163277,0.1934039221066507,9.16626308303298,-0.0927557211909996,0.0039330529806404,0.1109660607030964
280,2800,-0.0139102498421483,-0.0430205593520527,0.0194353789325064,-0.0387872459714036,0.1454178199242193,0.381687451254314,9.604508395694529,-0.1354012148574012,0.0195577391216995,0.1274741362751588
281,2810,0.0120976111447411,-0.0283287893596404,-0.0081167220482337,-0.0324841635739165,0.1667822410541386,0.1786444484445354,9.662343608254336,-0.0855247609892227,0.0104189814370109,0.1014742941177154
282,2820,0.0217263025781361,-0.0164309886519121,-0.0008249666816143,-0.0365487207575201,0.0864712026057587,0.385214771649587,9.606920569012964,-0.1000072579715093,0.003069873254159,0.1346747357949455
283,2830,0.0014461093322003,-0.0392065337242504,0.0027058505959709,-0.0296400214591214,0.0966449576994404,0.3143386489606383,9.166601345157106,-0.0867010360454756,0.0156302722553036,0.1288869693041214
284,2840,0.0093862430286858,-0.0218454594275763,-0.0030099092224911,-0.0207763536173128,0.206663516765758,0.5570184155359134,9.140573417679832,-0.1225021496675346,0.0228160819584972,0.1034015495831991
285,2850,0.0118691198571822,-0.0281039520219428,0.0083779205030973,-0.0443153506493141,-0.0249129377386233,0.3811893450868664,9.226281503187868,-0.0502739442685489,0.0020515426071726,0.1281893452503976
286,2860,0.0135919354056376,-0.0310947893479032,-0.0083906618428215,-0.0352014355701343,-0.0067061847460915,0.5577454008990717,9.212338804304736,-0.081154366344812,0.0176308075140489,0.0911281117130231
287,2870,0.031507917711683,-0.0192027297264289,0.0345202816141691,-0.0195266203033209,0.1111929339827253,0.3300463164806705,9.17669255839328,-0.1043027100224899,0.0083425548909023,0.1684638472074653
288,2880,0.0220961936378129,-0.0356066867595906,0.0182776943093959,-0.0371924352318454,0.0693835539414824,0.2734631429854954,9.244965786126665,-0.0915836105112492,0.0116996689787261,0.1101580252393054
289,2890,0.020005678009041,-0.0064101169433051,0.0241186489040386,-0.0234028321327361,-0.0626918720402994,0.6382754026331591,9.202300574421876,-0.0441536375674604,0.0063183161269794,0.1008965995449573
290,2900,0.0314991660113112,-0.0273670855317061,0.017969376336492,-0.0343549964931269,0.0795170487405623,0.28223820842385,9.409399427756895,-0.0728709657284614,0.0181338207708815,0.1101996094358928
291,2910,0.0272023570432287,-0.0163560823484637,0.0257582802989859,-0.0339059162498418,0.100273399604596,0.2182043470698578,9.40616438982522,-0.0740652238506283,0.0189516481580774,0.1089055277271075
292,2920,0.0081436326388566,-0.0351264380300459,0.018433043623839,-0.0286627171963884,0.0561155251600339,0.3114131479235256,9.504567191030135,-0.0991371643782452,0.0061529805789067,0.1007998956643369
293,2930,0.0018667741987508,-0.0323056819674348,0.0083912217079646,-0.0466042883539331,-0.1368170188258179,0.2370691861247856,9.141322878936355,-0.0816951812754672,0.0298731286328594,0.0668752056507058
294,2940,0.0330631196843739,-0.056896737482163,0.0072671413369267,-0.0210739554047519,0.0932755757302283,0.4618654996526633,9.004925642073841,-0.0672171981363841,0.0005216514097387,0.089326502416659
295,2950,0.0048571111489968,-0.0247472817811633,0.0094842122022588,-0.0205171930609896,0.0727499167538743,0.4241821937097058,9.473082240184317,-0.0819881049165572,0.0129553060453769,0.1365397705295728
296,2960,0.0142305629915689,-0.0500515487481016,-0.0024840671039658,-0.0401728817091952,0.0278129550501636,0.6796660151796641,9.5306617679481,-0.0856417620761124,0.0216765831469073,0.1604380714886152
297,2970,-0.002440699542572,-0.0154011219296135,0.0252885424879951,-0.0165488234179547,0.2297795366750405,0.4417166733200907,9.271240100898046,-0.0857579072500877,0.0016061481978203,0.1258537297153045
298,2980,0.0060505403042195,-0.0273480838898592,0.000404493922855,-0.0304135639482944,0.0626543476665414,0.2121532536779962,9.202233836290285,-0.0915584905912014,0.0253445037813077,0.1369725114782883
299,2990,-0.0047179526444868,-0.0373743553700565,-0.0015922331039381,-0.0357508148597784,0.0174150225490097,0.3913668560228046,9.25915747627436,-0.1123743716659692,0.0309435028191931,0.1174011361410072
300,3000,0.0328129559507035,-0.0380568493006312,-0.0002758002167904,-0.0389014052574432,0.2975187595049593,0.6581964085139991,9.275917103512269,-0.1178121261748427,0.0324237793271889,0.1030621922736459
301,3010,0.0188428408645124,-0.0214060591542316,0.0029780644692472,-0.0206043710604215,0.1425220655004838,0.4646012803935279,9.077416273511272,-0.1146554945930416,0.0400045065435392,0.1059304402231581
302,3020,0.022010336508413,-0.0261270865224241,-0.0007471642691985,-0.0180414896972614,-0.0309592759621325,0.1977228674864764,9.112381613219346,-0.110481694242679,0.0250339368906223,0.0811883757826679
303,3030,0.0126965626845886,-0.0166250768607437,-0.0053924530293786,-0.0415286477185671,0.0157962954208431,0.3844189903180574,9.124461596790898,-0.0507962211428274,0.0221513167233259,0.1266593253563782
304,3040,0.0099495050712406,-0.0190863389014078,0.0084650803299216,-0.0184130064864787,0.2242210231428497,0.2643126983525444,9.472918191058636,-0.1050715019356486,0.0182162188912665,0.0819851552857421
305,3050,0.002844346235657,-0.0248444113474195,0.0133086924240662,-0.0127462664715017,0.0346814057267752,0.3508314696980489,8.837482369303522,-0.1053812544490574,0.0184455299681746,0.1145739059517028
306,3060,0.019081059886463,-0.0195092503255642,0.0145917343927012,-0.0157701824872776,0.2988020375891548,0.4202369738860791,9.047590603771344,-0.1183281731550989,0.0015969040843327,0.1237383223984924
307,3070,-0.0057999353163276,-0.0575124939190284,-0.0029671017877878,-0.057946047302167,0.1378711492697689,0.5061135252373031,9.093156244248204,-0.1022716623114962,0.0231740343232786,0.0507942757066368
308,3080,-0.0130034296176242,-0.0597396563850539,-0.0035367630880402,-0.0502172784427075,0.2007521044156571,0.2067534810452184,9.468747281187278,-0.1366438754376963,0.01168538333247,0.107383618393489
309,3090,0.0125095355655281,-0.0548972163776536,0.0045824876625173,-0.0548334024515991,0.2246832801060046,0.1587616200632456,9.582761761570293,-0.1260373287647517,0.0215892868162655,0.0915696872780523
310,3100,0.0059811355752259,-0.0209901196986128,-0.0047419121230791,-0.0339760449119646,0.1278519785224249,0.5872830889109097,9.4808307325521,-0.1115853627911508,0.0180400555913715,0.0990772849226712
311,3110,0.0012176253977494,-0.0222726245049985,0.005395813218982,-0.0130822707522841,0.2034832790457089,0.4298477902271104,9.701830808448673,-0.1009567628477052,0.0285443065998996,0.1687482645665611
312,3120,0.0074601109428297,-0.0239468839002934,-0.0077143939730201,-0.0268094979519121,0.0013937237417059,0.377331297006938,9.545690307743572,-0.0845994523536304,0.025058754640393,0.0965217873159722
313,3130,0.0067261962328708,-0.0179682741312345,0.0110038093136019,-0.0417357844022642,-0.0294328664510229,0.2207270704635827,9.25622906908324,-0.1059227131894797,0.0129930331367517,0.1127847750717019
314,3140,0.0004338537085733,-0.0541999648806743,0.0218820653637074,-0.0240437427382245,-0.0138478935543443,0.3346526429723448,9.178632850012342,-0.0567229739509045,0.0146903556180674,0.090685375865842
315,3150,0.003109795703986,-0.0454527021778615,-0.0083862513227003,-0.0388940453274217,0.1358092781915892,0.2568120411318164,9.814618381237276,-0.1241962196512644,0.022946738939718,0.0712452408361513
316,3160,0.0074485202776617,-0.0416305839300672,-0.0252969705633137,-0.0545194792146297,0.2417033886641356,0.2973440951241606,9.646214753123816,-0.1155379297812362,0.0276899402956176,0.1519667026237565
317,3170,-0.0079350420744216,-0.0296168415404941,-0.0040759860508487,-0.018743879368365,0.0992472161786796,0.3120160028263323,9.082915986527892,-0.1076726124847377,0.0235199223565584,0.0356554665758132
318,3180,-0.0009136987821758,-0.0281262211782795,-0.0169839664540202,-0.0275621141296313,-0.0212606816231913,0.4351634326510128,9.356745790112845,-0.0752715849269222,0.0403542592553636,0.0418356258767991
319,3190,-0.0142539907561856,-0.0398857626480355,-0.0090569747175094,-0.0481792187038307,0.2027884123127581,0.3069294735701328,9.711672165925158,-0.0959466800130322,0.0137831401284048,0.1179005781750054
320,3200,0.0044340528202428,-0.0304782787375834,0.0215194188377104,-0.0110777521678907,0.3484694578954653,0.292082660922203,9.435019841286682,-0.1407542997051808,0.0362607465362585,0.0791257169845375
321,3210,0.0185046233511015,-0.0040941502668897,0.0105896375688311,-0.0292547003609209,0.0768374711134774,0.2965203172755233,9.43178777683034,-0.0812210562594478,0.0147663988843686,0.0944553128693517
322,3220,-0.0017826395168613,-0.0105197824406609,-0.0121428539162941,-0.0174186297001929,0.2579088873976861,0.3141432665631252,9.491352651619929,-0.0703399396972292,0.0298870604877684,0.1492027153939125
323,3230,0.0154937662915998,0.0022480036827605,0.0081476149917229,-0.023594492416872,0.1872113914157638,0.3281282186542299,9.38155086014768,-0.1003031056820828,0.0243909152547376,0.0902433763574893
324,3240,0.0162863445187643,-0.0440777905159686,-0.0071366587625851,-0.0400002424345823,0.1132220998758943,0.2129293641035882,9.227745972513969,-0.1227508054534639,0.0207514005383388,0.0558128336327242
325,3250,0.0023553763324682,-0.0225405938108144,-0.0003262694360014,-0.0212954662274509,0.2798888381762826,0.1805051535865778,9.69292145482899,-0.1195057287834237,0.0368628019233346,0.1095349725399871
326,3260,0.0221075925248578,-0.0245878646011911,0.023747884359428,-0.0002965543628567,0.3234436500199456,0.3153675645908571,9.289507629883405,-0.084922883795843,0.0440809811350139,0.0522943364504916
327,3270,0.0139514540502528,0.0063063116431559,0.0133020155629032,0.0081548256965264,0.1029226759758499,0.4213794337921437,9.009730129929524,-0.0841744130674026,0.0220215839840713,0.0637216585742871
328,3280,0.0433463042433326,-0.0050672942426849,0.0215916036963213,0.0022334697941799,0.1162560197341745,0.3324467031493591,9.54526788498209,-0.1183195361349465,0.0243870198492685,0.1179673439406918
329,3290,0.0157875677534238,-0.0222624935857999,0.0086442847542582,0.0027242552474603,0.2527107411815317,0.2864709015517084,9.14814073334639,-0.0689519650261246,0.0300945540453934,0.1249413229618823
330,3300,0.0113504835595927,-0.0118140980456883,0.0190967094723981,-0.0016418546229432,0.2246687915583,0.3381074223751555,9.289694897035934,-0.0772666940617519,0.0404238787634194,0.0751640563899824
331,3310,0.0071572041164278,-0.0190876155341096,-0.0004793177042617,-0.0063509057017157,0.1120856621665581,0.4644049789517439,9.462008694376072,-0.1116286162727375,0.0233309412614598,0.0746387388672438
332,3320,0.0451465061743782,0.0110806755500034,0.0185642114404955,-0.0062405767880615,0.2777172171201493,0.3030628162510836,9.307689394171136,-0.0862358370736043,0.0401948753303528,0.0707060075499084
333,3330,0.0061894452205523,-0.0257946630829953,-0.0026392212314004,0.0005799294467795,0.3991826364252238,0.3727022334654619,9.16152797184122,-0.1173976430762601,0.0246877860157645,0.0759591626721542
334,3340,0.0324242869664011,0.0007778587150561,0.0346105614004177,-0.0015450741684074,0.1636265829440009,0.195551476312326,9.250411962012802,-0.0698605764529301,0.0220328198144321,0.1202417680095821
335,3350,0.0481952861353726,0.0082998698941472,0.0373313567187632,0.0166714144220212,0.1068139174359572,0.1229108447392888,9.235625978537044,-0.0913495644321493,0.0403194574875619,0.1059243075799889
336,3360,0.036983916984521,0.0014792165934147,0.0066101491579076,-0.0029825371411421,0.303097541022103,0.1829114995746901,9.157996659562182,-0.0799275058855128,0.0476038786087379,0.0792837058925978
337,3370,0.0349878674589732,-0.0172815571747703,0.0245932128038878,0.0003010916348644,0.2441688556937903,0.328671222363772,9.290477476586124,-0.0990817819881493,0.0417385226744901,0.0948130062042334
338,3380,0.0181893393448101,-0.0073870572676922,0.0270009201963905,0.0063139972608041,0.1609902550274441,0.3787778008002648,9.508546681436997,-0.0660494517839565,0.0090671899819135,0.0891980148254037
339,3390,0.0272807263547306,-0.0017784368425938,0.040120164648184,0.020098655366531,0.0945622589325003,0.0657364053077391,9.358418232257126,-0.1233249367017667,0.0338752520019994,0.0925770142931734
340,3400,0.0353531072972216,0.0018147186234395,0.0111336189949723,-0.0137982547673177,0.1412313415636894,0.2025262521479662,9.76379988887857,-0.0964917708157716,0.0283008837204268,0.0474949489889
341,3410,0.0296472987520115,0.0029193788999438,0.0577981714356331,-0.0107027825823523,0.3466302957775613,0.2222651806359802,9.25733485453302,-0.0858278527305272,0.0327238419757344,0.0620105820348029
342,3420,0.0540999631994075,0.0145536839111866,0.0374217092359801,0.0146020184922549,0.331955458242734,0.2386927288996704,9.334051826228189,-0.0779543544295914,0.0369705994154053,0.0496062520881294
343,3430,0.0116717173546598,-0.0152867986935289,0.0205952592464407,0.002595217620844,0.2675421940203668,0.1851224758991684,9.429273471071282,-0.1040870007559004,0.0528377926640014,0.0672815096166234
344,3440,0.0317956955465898,-0.0008087218261455,0.037519896120234,0.0209601366072915,0.0919389009806057,0.1467053422312824,9.008509747616504,-0.0921697124495611,0.0451147499649111,0.0854297722689434
345,3450,0.0192754518237721,0.0019016345100431,0.0409466608137465,0.0059392161685344,0.0325533990186254,0.0599063158909681,9.565208414751211,-0.1171110616272929,0.0360851252577317,0.0515448486465043
346,3460,0.0051148226451056,-0.0238607239167653,0.0343905462947732,-0.0120545149055561,0.1903258169023615,0.2759127596749339,9.48758296706074,-0.0490640088156401,0.0500164601620626,0.0474419218088881
347,3470,0.0448500021278927,0.0057833850310287,0.0273812163313518,0.0118072565919433,0.3386278197694815,0.3406393533462601,9.167757866049644,-0.0907265860832921,0.0305008225608063,0.0373327217802945
348,3480,0.0364004964458542,-0.0011315541904135,0.0350754046875924,-0.0087788939147509,0.1996277177554979,0.2427815017927594,9.480993734516298,-0.0781417145951529,0.0322362358025401,0.0543771657947559
349,3490,0.0248112270739174,-0.0038812016804589,0.0304333368489435,0.0077926106475035,0.1183618505305844,0.3671582881662089,9.35787831082803,-0.0825169219364268,0.0237774777708857,0.0876620161056887
350,3500,0.0256064433212518,0.0102368013140689,0.0121516066239292,0.0173851429567139,0.3402230124566383,0.1914950172509054,9.317418140742634,-0.051763304066002,0.0390311395471975,0.0730854050838736
351,3510,0.0221967360822889,0.0004067917210146,0.0199239776528662,0.0218528357758157,0.2164651080893594,0.2192651009530662,9.46908677901533,-0.0681573703595373,0.0313625957867808,0.1209350446067338
352,3520,0.0047454555996909,-0.0073377555673708,0.0223114830016024,0.0053304270404787,0.0425516564351318,0.1681998073093918,9.682773039115766,-0.095342921156274,0.0324897612786553,0.0390558270062308
353,3530,0.0155606916364187,-0.0029769717302016,0.0134220850130629,-0.0021134940733339,0.3590335326707413,0.2723671896944303,9.965803151160236,-0.0691537168679421,0.0377756503626873,0.022132708649007
354,3540,0.0175088268786438,0.0075806836762328,0.0480505591447954,0.0072283860906672,0.0844729187433779,0.3376789239858731,9.794929314336382,-0.0573017757909193,0.0289807046734772,0.081939590697661
355,3550,0.0190627807269512,-0.0015959929322984,0.0305508165038518,-0.0037564840920376,0.1825291849233603,0.3678987101238533,9.13050446354398,-0.090807905919877,0.0356475879766407,0.0795988046058647
356,3560,0.026631550483406,0.0011904889758899,0.0354249708411543,0.0057909557115961,0.2032985209929345,0.1062160624177103,9.224405475705806,-0.09303043961659,0.0537967622262134,0.0415949349957459
357,3570,0.0201404644428643,0.0157895720352051,0.0268213813302125,0.0001459294321589,0.3608175026177908,0.3674917501717989,9.730192299399096,-0.0435906432468303,0.0413650825835009,0.0849055700113688
358,3580,0.0169918900418359,-0.0012986999230435,-0.0028568560258168,-0.0280709694696349,0.2011064521723219,0.2680044018567831,9.570871712710566,-0.1002635420320011,0.0334873219059628,0.0901104603515231
359,3590,0.026735225549709,0.0101085030679497,0.008384195084478,0.0093797749644502,0.4487629825277254,0.2132915420380664,9.346963736908094,-0.0392185766589367,0.0391928125054969,0.0689200432999915
360,3600,0.0264620417465365,-0.003958722654301,0.0320229496440928,0.0148525311027991,0.2822391950860503,0.1604155097643887,9.90028059378811,-0.0727756796509005,0.0447608761683073,0.071919630088882
361,3610,0.0166006776423917,-0.0221343208265092,0.0275825740006896,0.0094228968407453,0.1889715178676723,0.2657867664406842,9.623592494275824,-0.1116465915268176,0.0406792387741807,0.0547321107819507
362,3620,0.0334440965700025,-0.0010889302288159,0.0175205928547955,-0.0059431722062948,0.1038724790246773,0.1311604516736357,9.306845739254683,-0.0280918062722328,0.0553186966315842,0.0986788275577494
363,3630,0.0400795344691938,-0.0008934166126471,0.0360811705222504,-0.005154368651441,0.1722952765840028,0.1372809087071702,9.362961320950806,-0.0384615293427724,0.0169536206732274,0.0014818127915399
364,3640,0.0417663514819398,0.000260122081842,0.0326635438767823,0.0159268617441338,0.1094076717979516,0.1373806169228633,9.746706259393871,-0.0474258949168602,0.0423507191673496,0.0765894402008206
365,3650,0.0281607473496307,0.0086836624339993,0.0297002121017306,0.0183726192101075,0.2563922794910875,0.1365340258639977,9.724375898053369,-0.0640176981232827,0.0253204218028875,0.0845435262428493
366,3660,0.0237637728891632,-0.0070659136306424,0.0325322755916601,-0.0021490428994808,0.1901265801706671,0.2628967929839575,9.576285169788957,-0.0284691630092705,0.0463895460812603,0.0440035383796225
367,3670,0.0195644000426898,0.0021211352509245,0.0291908383900725,-0.0166775230710373,0.2559211017059375,0.1714004517937714,9.508133290680428,-0.0455293199808937,0.0526308866508205,0.059555478488387
368,3680,0.0095381223549601,-0.0052016943866162,0.0178872203819921,-0.0114884944272549,0.3334606027517746,0.1795621229467094,9.28612333668018,-0.0707206126452723,0.0613242587559907,0.0464308789251836
369,3690,-0.0021173119733553,-0.0247752716881444,0.0063002411803103,-0.004579061222255,0.305057224504309,0.1768712287934852,9.53000674867351,-0.0641767094021107,0.0426049913594384,0.0561843707355268
370,3700,0.0387838649975811,-0.0154187881028919,0.0151612468914238,-0.0044582094832036,0.2317132430651753,0.1722982089108405,9.777809960776516,-0.0616714908895794,0.0376046330882037,0.08900759735382
371,3710,0.0139387152396147,-0.0012560157052807,0.0299814670032835,0.0089563206714195,0.433387218184786,0.0793044093070451,9.615944502592436,-0.1033342476950044,0.0631602402908141,0.0948714720813094
372,3720,0.0273386178110298,0.0015343311651335,0.0306562656998104,0.0099804545615316,0.3497445432218342,0.3074459887651527,9.603399605357993,-0.06179593202829,0.0578034655185234,0.0549127709852486
373,3730,0.0312835783295038,-0.0044688730678289,0.003459386604677,-0.0054082717842422,0.3376662753836119,0.0945000749698664,9.50570859092452,-0.0774609081548882,0.0372970510155265,0.0223387244136988
374,3740,0.0394720544015727,-0.0075609861989017,0.0327818834182069,0.0042463036688541,0.3450293733186732,0.3215473645352182,9.763422865380734,-0.0705234899871578,0.0328676687641212,0.0809224256577477
375,3750,0.0369117066360513,0.0047059384177943,0.0376151400668341,0.0007828674375721,0.2773268798876867,0.1548093083743469,9.545211709020917,-0.0632354570172345,0.0504171213507687,0.0576273492376072
376,3760,0.0513201634247169,0.0075911479460366,0.0377812503095503,0.016057443679435,0.2736208652161482,0.0529611270555446,9.506214158437752,-0.0734678357191759,0.0524112821790291,0.0310732740925105
377,3770,0.0165025626216785,-0.0090340901043765,0.0248033469663026,-0.0071246997859144,0.2858217782761548,0.1341275954798195,9.295260433397411,-0.0598848743102384,0.0428104127074357,0.0435691306155372
378,3780,0.0356509931620436,-0.0007385192809009,0.0162513691284749,0.0107096105887876,0.3802559503762385,0.1096311419221954,9.521009319194642,-0.0729986383154198,0.0297337296458338,0.0292706620222427
379,3790,0.0343898649736497,-0.0007934103636762,0.0282441457109052,0.0135947218871063,0.2029592718949374,0.0434559609634008,9.150631043193847,-0.0568124274706904,0.0441585958361937,0.0302664716482216
380,3800,0.0410199173087126,0.01501145610654,0.0331852143071692,0.0457496525078375,0.1856251043530495,0.1331814885798784,9.293405738025983,-0.0342322294971756,0.0453027561375074,0.0391500218377845
381,3810,0.0211563163817484,0.0125355419050759,0.0106258797347941,0.005047375911594,0.3188611006651045,0.0988746149264369,9.624714154444066,-0.0463210245638851,0.0537518569593369,0.043926648677548
382,3820,0.0434842245348765,0.0155541004426853,0.014324886429487,0.0105867331984302,0.1174992395069464,0.103933205084485,9.651147453523848,-0.0639491533726126,0.0479966344108367,-0.0133167628359483
383,3830,0.0373876897641792,0.0206050843108975,0.0328062206369559,0.0054199306782713,0.3916906642488618,0.1735751938209651,9.325437552489165,-0.0527980141281008,0.0383559811305538,0.0637013100062917
384,3840,0.0347978500386771,0.0344518917508046,0.0418136675522848,0.0252064125044827,0.3065233608212238,0.2742771983056877,9.570977582668917,-0.0139459869647352,0.0429258521607659,0.0037969748808397
385,3850,0.0136868172152657,0.0249637179788563,0.0428367623315426,0.0137039615800639,0.3355698082154608,0.2281967960316302,9.589246678582423,-0.0547297281690651,0.0408146892026878,0.0167560524271455
386,3860,0.0279385549337802,0.0217406364986613,0.0332547626179301,0.0289819266847516,0.1574137883112769,0.1918281323945631,9.62970161783601,-0.0246939329836308,0.0499825130923946,0.0446928841684074
387,3870,0.0444673902920397,0.0169006333258313,0.0436003221417813,0.0384736659769876,0.2846598409459829,-0.0229049965266711,9.681480590880405,-0.0653862132565579,0.030268628089498,0.0039661589864792
388,3880,0.0440345190436683,0.0060298725196356,0.0317803808543528,0.0130251715609647,0.3179631760507731,-0.088430019631196,9.402337078186502,-0.062840977260594,0.0365109678485207,0.0300797870230642
389,3890,0.044942815758661,0.0155567960694575,0.0318000657117058,0.0255947285066683,0.5329739896776026,0.1450312692687903,9.632829991056571,-0.0557365455685617,0.0458344255411453,0.0076863987870057
390,3900,0.0343137235282179,0.0277618489922281,0.0421733458596902,0.024060709584313,0.299273083781602,0.1700181143150075,9.59989266028544,-0.0395690660100469,0.0354324056931027,0.0664137358120715
391,3910,0.0117808831202781,0.002362827466086,0.0263661248005921,0.0155355663161512,0.0324106005417954,0.0779435494569973,9.787708341134346,-0.022538152107748,0.0524774264305266,0.0312984973204241
392,3920,0.0287940479402582,0.0354816540315604,0.0504311303182404,0.0299116558400839,0.306079109532805,0.2887213585649731,9.425449174220605,-0.0511851673843845,0.0421371278340928,0.0731052347941959
393,3930,0.0370487888104533,6.629178836113289e-05,0.0105326653580905,0.0030286924220349,0.4018111542171118,0.0904804541961757,9.6961437466555,-0.0131138171343551,0.0485021221285675,0.0365455219005705
394,3940,0.0401054495267245,0.0225185218106431,0.0326005553803779,0.0282319653899119,0.2823780556737773,0.005041273257479,9.639952338250346,-0.0705980756006392,0.0511161125357345,0.0083075111526031
395,3950,0.036404537761859,0.0047727970430889,0.0234011854348631,0.0163958656868636,0.1413755922367832,0.2478894365577046,9.549793158264071,-0.045820529692599,0.0414023500639704,0.0631981952467083
396,3960,0.0238367533523415,0.0139491557720882,0.038712620728126,0.0092533551428403,0.2337988400929302,0.1154979923435347,9.50999161192465,-0.0719661171371334,0.0706104491192929,0.0221106611052236
397,3970,0.0242406075093734,0.002558159372936,0.0404469920005877,0.000714705272029,0.2623255446950382,0.0893842542565714,9.767462349827998,-0.0328038194397701,0.0556455576091285,-0.0020425230234457
398,3980,0.0341024089432058,0.0145921970091517,0.0185412676777686,0.0379990808063041,0.1313991383027204,0.1780863886137384,9.589599916555978,-0.0364165922159343,0.0456674998527154,0.0005918712615492
399,3990,0.0023739894224878,0.0210879542977991,0.0006314268900533,0.021127779091017,0.0909342110016787,-0.064417137237787,9.7374764551628,-0.0507181950153786,0.0367715681848715,-0.0023090127291909
400,4000,0.0077356168666647,0.0363862009065609,0.0349770377806907,0.0084307643470939,0.2888817411470772,0.1591347801224547,9.849810565228177,-0.0463773031076927,0.0257196077414463,0.06373124509613
401,4010,0.0110805720164081,0.0148879914814047,0.0008951553189398,0.0187545272072377,0.3227528044036271,-0.0308064791833966,9.81148607354183,-0.0371666084274497,0.060281437039879,0.0410376600829087
402,4020,0.0197857674786863,0.0268214523175782,0.0215743522285409,0.0113469856559947,0.2877525016466086,0.1218947300908855,9.717017327247316,-0.014700046544828,0.0520294977694112,0.0114512933980465
403,4030,0.0313459257459402,0.0143816941885786,0.0293943527405322,0.0108335299070488,0.3604918986816988,0.1753826765578774,9.77263299690751,0.0004902128052721,0.0386616892907292,0.0559390115993015
404,4040,0.0016753429553477,-0.0035702073561828,0.0128995348745487,0.0023863651386361,0.2318408447727166,0.0893726289896,9.766982074129215,-0.0724472059351872,0.0378727149876627,0.0284497846285829
405,4050,0.0135405524688046,0.0189387286672327,0.0070787669949386,0.0129792399149343,0.4151082942530248,0.1012111400113779,9.748108818534243,-0.0102428031025008,0.0596464585289334,0.0367659834300303
406,4060,0.030070078151594,-0.0113901230989733,-0.0030734235422792,0.0235258052756715,0.2649304798384665,0.0418929952714432,9.713980787020803,-0.0158051428399641,0.0559431188078624,-0.031594104990982
407,4070,0.0015030708770405,-0.0007673856566069,0.007867697526555,0.0133556596966683,0.3252860172362873,-0.0534048544063583,9.48762781507373,-0.0433294580114878,0.0504522714567693,0.0394711854932941
408,4080,0.0003967956037757,0.0062341102004317,0.0102752978429531,0.0112153094692877,0.1376266688072189,0.099104183280748,10.064907730507148,-0.0011771797404686,0.0581234906008104,0.0158258215346819
409,4090,0.0004127446342069,-0.0051005244345284,0.0037904823188735,0.0125349897691223,0.2153053968951242,0.0221408514960064,9.89855422855904,-0.0212049018422939,0.0496367916613913,0.0551544660018387
410,4100,0.0020562987989352,0.0029646546797649,0.0198372065400394,0.0081410604314911,0.3960669646192986,0.14090963607966,9.652331865660091,-0.0466533038379354,0.0305610558216732,-0.0220699269244638
411,4110,-0.0175232841523452,-0.0042993285767708,-0.0114289709618674,-0.0053336723726254,0.3965328735111148,0.0157259359826636,9.54933353176584,-0.0169825660646069,0.062989506638115,0.0139266146400303
412,4120,4.133411415447935e-05,-0.0145993561876969,-0.005844584106721,0.0007023211762913,0.3190071937681753,0.0616186907123036,9.74955840594309,0.0049640099113242,0.0490873118134528,0.0251221237498053
413,4130,0.0049231952074133,-0.0056963978629376,0.0185295989287021,-0.0022584393389154,0.3158731757715262,0.0009997103851022,9.579221361814511,-0.0099586621747688,0.0547947398293594,0.0979336043435021
414,4140,-0.0091488626973361,0.0175879492562343,0.0039219679623637,0.0206333349433112,0.3059557155092066,-0.067136587717063,9.481282253850033,0.0044651416075307,0.0541002101732197,-0.0273625735274416
415,4150,-0.0134156483822167,0.0036785599942524,-0.0039290162807254,-0.013426649396219,0.1922365438587835,-0.0927969129278188,9.536277567034638,-0.0310741266975437,0.0411096622475772,0.0291080869804851
416,4160,-0.0101885235643828,0.0078779092725496,0.0029906999627509,0.0049065424367104,0.2813950950453301,0.0185161742688262,9.779472562155387,-0.0186712694381964,0.0387141597147552,0.0047293467581609
417,4170,-0.0072861546814477,-0.004382103283359,-0.005164791644131,-0.0127550373170517,0.2202894251918905,-0.0100895840124471,9.606181258229398,-0.0544743759177434,0.023394974728241,0.0216244047988981
418,4180,0.0017006813296906,0.0067037963825706,-0.0184741396450662,-0.0032962490098229,0.2779371290773169,0.0104280216833697,9.830065882686656,-0.013249106617808,0.0412595503578484,-0.0195153260524629
419,4190,0.0005954207454173,-0.0079501302185153,-0.002949821974913,0.0041941282100599,0.2467546650092789,-0.2014217405342755,10.086628210312238,-0.0305157931813814,0.0608692939804401,0.0102336029583187
420,4200,-0.0055916586681952,-0.0236388130931675,-0.0050643828752626,0.0002868289164603,0.2489012405863648,-0.1460138966693064,9.534385088922225,-0.0144513205725034,0.0348820069090062,0.0042588411594259
421,4210,-0.0123079077464911,0.016880121689486,-0.0153466810302922,-0.0198309494717243,0.1737874066362605,0.0071741206550023,9.68615520909051,0.0275250981177631,0.0349471140581669,-0.0310527348972933
422,4220,0.0110395219052349,-0.0041345455697763,0.0020458378965876,-0.0027324232128146,0.3516052396238287,-0.037927200450062,9.767107204605193,-0.0140502707259925,0.0489305495698866,-0.0124387791914989
423,4230,0.0044233243514695,0.0077339374290026,0.0098942235307577,0.0130540873904704,0.1530002482325748,-0.0324154793597614,9.674155797592189,0.0074611847185858,0.0528262898081894,0.047662609459228
424,4240,-0.028033099999176,0.0159201727497565,0.0017918324877805,0.0085455788238282,0.2140221535705049,-0.0236121158723799,9.963201591218892,-0.0215025664957488,0.028464641535326,0.0091558374723735
425,4250,-0.0114650005772677,-0.0155560580776849,-0.020242752777028,-0.0014304231314109,0.3103781576033631,-0.0612919301479602,9.734603740491014,0.0175734966061183,0.0502323614107449,0.01775492264442
426,4260,0.0212308610285285,0.0091300708727333,0.0178651802914697,-0.0112315041894393,0.3101483521802134,-0.1115129030725592,9.48945685839343,0.0109511458125336,0.0405448071670827,0.0321170903649372
427,4270,-0.0173450697386319,-0.0127955732555603,-0.0200791705857646,-0.0147113814680356,0.5088196963184215,0.0496092271326806,10.071859696495158,-9.468882641292904e-05,0.058035946983003,0.0506503058843876
428,4280,0.0074446817130243,0.0099993849549351,0.0121313451415243,-0.0006911895643866,0.3278296257578715,0.0328341956565235,9.998058237058189,0.0193111700919581,0.037871541948154,-0.0412041006228541
429,4290,-0.0126363909142141,0.0074094329140144,0.0103648492542385,0.00942357745605,0.3353796376719173,-0.0807758264324383,9.622749588485762,-0.025070641489336,0.0551852822508728,-0.0128317394467302
430,4300,0.0087881289641906,0.0048102538165854,-0.002151710861608,0.0122804062418995,0.3125413404205301,-0.0928988932131063,10.060195103609182,0.0147788000601465,0.0555207833454767,-0.0405143578850622
431,4310,0.0152826353989898,-0.0074417422672075,-0.0082847043735164,-0.0062689577465817,0.1592453202272222,-0.007894833366025,10.019194624192432,0.0171075359618617,0.0340509447923809,0.007998217868491
432,4320,0.003249969300363,0.0109529516425788,0.0185813342672216,0.0167199786789921,0.3638299896918387,-0.1412391175627771,9.99310502097644,0.0091138335826609,0.0655916971969849,0.0126418192167819
433,4330,0.0130245537422625,0.0063487588358479,-0.0046284781594329,0.0100377744624637,0.4082177546813496,0.0687031120901726,9.672586161368104,-0.0064185463860969,0.0485895744662662,0.0602957610995845
434,4340,-0.0224017641853767,-0.0068812037802482,-0.0068397066260711,-0.0026522360939271,0.184870197443879,-0.0042141519775373,9.967189619166886,-0.0108583367232762,0.0445040671797572,0.0247567416574013
435,4350,0.0098212866448792,0.0147950304958687,0.0139378280110739,0.0110036071445328,0.3975925361318731,0.0534593727366531,9.660086510182124,0.0227806654959121,0.0495733355054167,-0.0631174407182364
436,4360,-0.0087388770858089,0.0152339093867171,-0.0100571540768702,0.0001385154540419,0.2567930303531801,-0.0674986963217721,9.897486628819811,0.0663825692694947,0.0372660516282339,-0.033072499792137
437,4370,-0.0098166745194298,0.003775202916752,0.0041302648789301,-0.0137147051555021,0.3982342064346153,-0.0784981243582354,9.896289653085612,0.0222309567809784,0.0456222036672367,-0.0531144361333262
438,4380,0.0060026556775668,0.0386223386997817,0.0181080311159175,0.0051949459119813,0.2334562751693806,0.0028747774510592,9.970416418580797,-0.0123594735351117,0.056751821634955,-0.0101431510770857
439,4390,6.070019847142366e-05,-0.0063782494002127,0.0016319268934314,-0.0153825990666968,0.263781553215245,-0.250183407264516,9.73723664026072,0.0320791935269612,0.04161434803245,-0.0299163752074725
440,4400,0.0260368304751363,0.0003801208189175,-0.0082473412266773,-0.0018202889191619,0.2652489950174324,0.0221740984734059,9.89944426461751,0.0099989013799527,0.0546290107408205,-0.005139198602558
441,4410,0.0062198923251902,0.0194389338871507,-0.006294608693526,0.0195114500618092,0.2302911890825471,-0.0141434454174804,9.992032709634756,-0.0097815541493189,0.0410256732872727,-0.0126112591590321
442,4420,0.0146936485550533,0.0069745197623683,-0.008873001109133,0.0040043008084662,0.284912087349956,-0.0329985603561133,10.259544574512509,0.0136801328253942,0.0392262412932802,0.0093178371934835
443,4430,-0.002818056122339,0.0133349597055245,0.0005635754600918,-0.0087611328360549,0.3438627080737774,-0.0367113098075716,10.032304622686064,-0.0022448535049519,0.0473899282792007,-0.0375615733280868
444,4440,-0.0013923307284314,0.0010580350397083,-0.0023637768960642,0.0090607605881364,0.3510767395279147,0.0936253756386313,9.956621653893766,0.00863832675311,0.0542841535200868,-0.0477884707884705
445,4450,-0.0107637109803405,0.0113829567526643,0.0037822824383611,-0.0116100680056112,0.3117695920599868,-0.0797992263136831,9.804262508352949,0.030607264333053,0.0780329742264703,-0.0248998477122828
446,4460,-0.0045273333944395,0.011805758654282,-0.003158535761535,-0.0080447686410635,0.2799627526913384,-0.1199218850383017,10.074060857468554,0.0288180015395208,0.0333972150369166,-0.0395867310578765
447,4470,-0.01340378956314,0.0185863261774522,0.0067957977894688,-2.715528576111969e-05,0.3227700172095923,-0.126399518750017,9.99993478145648,0.0293108093938575,0.0731074626950651,-0.0167482413973608
448,4480,0.0020253694732331,0.0111901466671751,0.000928305789966,0.019187657206715,0.0902093592117892,-0.2733381188324973,9.76384130429741,0.0475816321467505,0.05216612918907,0.0263928801225981
449,4490,-0.0037321510577541,0.016962441545039,-0.0041039473031541,-0.0032021545996476,0.2381688245355725,-0.0981925566198867,10.010790450877469,0.0825750658046568,0.0335225225389096,-0.0274916921037569
450,4500,-0.0198413868853257,-0.0079439149178553,-0.0152906093443365,-0.0213856618113137,0.2371394882374237,-0.1521815693121787,9.58906556292487,0.0262669155798379,0.0667888482111046,-0.0032969132666379
451,4510,-0.0415728144296339,-0.0133759554124202,-0.0049841389436933,-0.0161834790232907,0.2054484580089541,-0.1799423607995128,10.07775012711354,0.0535855538299655,0.0588189610937065,-0.0017619729785141
452,4520,-0.0364649452313736,-0.028086965128283,-0.0179710335150562,-0.0230882162500254,0.1347258745198259,-0.0973255269755647,9.95437957132438,0.0213638270707004,0.0414961247245031,-0.0049298647835308
453,4530,-0.0028670640143625,0.0016927691052875,-0.030209845837978,0.0069401175239629,0.5165164275462185,-0.1426691302129991,9.58643860855267,0.0434623327628884,0.0553195824103714,-0.0011610833530798
454,4540,-0.0336538940409275,-0.012865763455971,-0.0174459076162155,-0.0208617453245748,0.2075363395357754,-0.1780500303216271,9.79196725402098,0.0401762371360219,0.039149049549807,-0.0526466589479784
455,4550,-0.005152595223425,0.0121895425652862,-0.0262341912221537,0.002194783792169,0.4197053262477349,0.0790235386333184,10.230709637865896,0.0421357004681041,0.0413179875591329,-0.0176688407380498
456,4560,-0.0251986578671941,-0.0115944399857111,-0.0272435971214319,-0.0137202626462015,0.1388859301672367,-0.0515286865427495,10.089070942730055,0.0402312046546349,0.0597617467702596,-0.0147516625602869
457,4570,-0.019090404421592,-0.0261461009636639,-0.0216107579565753,-0.0179449809046783,0.1722699193602248,-0.2244272776583238,9.97411850677134,0.0263021216661471,0.0507206803823297,-0.0168264111441349
458,4580,-0.0419677392971736,-0.0259004476847453,-0.0427571013660908,-0.0275150372573617,0.32585160875498,-0.0740053798599923,10.078063681487018,0.0362294347956575,0.0427561003972701,-0.0507655643823111
459,4590,-0.0300488880068226,-0.0167896173161922,-0.0143147531451693,-0.0107330219903854,0.3674981809901995,-0.1650640678171966,10.01615682248419,0.049230876698587,0.0697266023332908,-0.0477814479926297
460,4600,-0.0317197259334447,-0.0019050785839032,-0.0210869326227266,-0.0217269444411132,0.2873870074582073,-0.0675050901693464,9.893033864853065,0.0384476601500366,0.0646439392851789,-0.0259412919980452
461,4610,-0.0394184282877004,-0.0287119404722108,-0.0356667689869453,-0.0250978663779638,0.0625020204359116,0.0193628093525318,10.225975316617564,0.0150970803900671,0.0656078056644743,-0.0697956253548536
462,4620,-0.0290429571583361,0.0022603392318944,-0.0337404685183386,0.0045972112054528,0.2039092209362019,-0.0193499016993667,10.048799384315936,-0.009546185436708,0.0527845706689744,-0.0019983316009483
463,4630,-0.0431619395608018,-0.0259423270027171,-0.0377864742946912,-0.0189443563388647,0.4708567437248195,-0.0473524037948611,9.612758601151098,0.0067303298299016,0.0386925132351289,-0.0256993106844166
464,4640,-0.0175108940039088,-0.0175389435346281,-0.0158381332490061,-0.0243572308408453,0.2122431313273122,-0.0995970781339137,10.047515313403538,0.0550304391978868,0.0502135319743481,-0.0364494817273668
465,4650,-0.026352853891648,-0.0115612124043268,-0.0462895337126138,-0.0114165784207001,0.4231800741779572,-0.3753058316897709,10.291886270034908,0.0704887404821869,0.0375685645890332,-0.0193213929111018
466,4660,-0.0497713071263254,-0.0395325158965737,-0.0383671448275609,-0.0241799294065898,0.0944983263906968,0.0421888234369498,10.225618049524591,0.0303632104675519,0.0486259787772,-0.0863422514453802
467,4670,-0.0362638759317807,-0.0145835322728356,-0.0386256374079991,-0.0078949033891085,0.0291208251337964,-0.1570321439188526,9.756479348145268,0.0900801620573978,0.0441252064761607,-0.0598929398994398
468,4680,-0.0450134852736924,-0.0236192989582115,-0.0265979474118786,-0.031946349947345,0.2245602798674399,-0.0830130759424558,10.279526969225325,0.0653371202698098,0.0345793154883834,-0.0202627225025131
469,4690,-0.0291218739130364,-0.002091316317053,-0.0323062612730793,-0.0132675237851445,0.3254393996328864,-0.3007621642300848,10.159954988097056,0.0260202778995618,0.0507818478385185,-0.0581490357129795
470,4700,-0.0225594782655165,-0.033566408598804,-0.0049416927199757,-0.0215421226209526,0.4546620797574728,-0.1703545180242303,10.09421553387906,0.0688006466231394,0.0394128556313794,-0.0878791667175445
471,4710,-0.0445264354902653,-0.0162269064320064,-0.0168728624822472,-0.0247929357952895,0.2002839614687555,-0.1591693180423622,10.02792936301298,0.0711288657390545,0.0634843062031714,-0.0940382873522417
472,4720,-0.0051867315577558,-0.036153188844088,-0.0422580405259754,-0.0199989278061082,0.2589694131704526,-0.1930914468190027,10.087021641361876,0.0597845777821593,0.0527386097632698,-0.0951023455028564
473,4730,-0.0216775900977835,-0.0052197187609773,-0.0375920399468791,-0.0090092571252882,0.2234563778392566,-0.2727088552370278,9.980824334983406,0.0318097647085547,0.039080091529349,-0.0227505021136132
474,4740,-0.0489580587874027,-0.0086533087125736,-0.0374800679003563,0.0003727698562647,0.1584358090360618,-0.0784889923076594,10.365642296637576,0.0218135733044549,0.0306117622982795,-0.0714145595708549
475,4750,-0.0285706666770826,-0.0097907681126826,-0.0294390485702981,-0.0159292927590983,0.1470662544758913,-0.3374852152982441,10.379923080302174,0.0438340750339196,0.0424743511641453,-0.0513054166737148
476,4760,-0.0427223314551835,-0.0031373571719869,-0.0177619641463923,-0.0169444187766314,0.1780210582677347,-0.2298590901570629,10.08914079568335,0.0459262296769979,0.0564990359070733,-0.0457683230123021
477,4770,-0.0328734905580616,0.0022038218900637,-0.0263936897388346,-0.0158248270506707,0.2065633451284936,-0.0498800316664428,9.943822900482251,0.0436123374582042,0.0512522665001967,-0.0732572512606299
478,4780,-0.0094973919614711,-0.0033108648182299,-0.0092532804013749,0.011545709746145,0.3733461875778545,-0.3213681738213225,10.071653053068378,0.0582124279130595,0.0449509526761811,-0.0566558749319114
479,4790,-0.0281533709814316,-0.0141196875467416,-0.0357157891635708,-0.0211032036909851,0.513816935372276,-0.0596465968936201,9.889679729413476,0.0393718767503128,0.0303794763620273,-0.0180423490331455
480,4800,-0.0184202087908724,-0.004509695884439,-0.0281435431713994,-0.0094890959032919,0.3767490761378434,-0.0930140199007538,10.506871830160527,0.0636848963625901,0.0412860434627414,0.0141365535179018
481,4810,-0.0287167276416386,-0.0030685206103972,-0.0414056488740374,-0.0100878889873699,0.0640884574205893,-0.1115880123789307,10.055867395061933,0.0643513291082173,0.0418841608825831,-0.0607795663777741
482,4820,-0.0451936690010085,-0.0189620762219678,-0.0446995784486852,-0.0109072104660103,0.3546724642943575,-0.0546551154088649,10.334593263902974,0.0928139022949317,0.0613398303089608,-0.0108050636595534
483,4830,-0.0285002925992017,-0.0072660670340138,-0.0239823612005915,-0.0098899555258242,0.4016161225997564,-0.1418167557656003,10.226830785279192,0.0663597348491639,0.057253878796608,-0.0437108413259246
484,4840,-0.0341007450424563,0.0013621636497719,-0.0392790455678209,-0.0144937982686438,0.2573860996217456,-0.0637128092456625,10.009250481992922,0.0910424567033445,0.0285717840192501,-0.0232173117062032
485,4850,-0.0047081050182795,0.0114621807542931,-0.0028538054796871,0.0048038812132083,0.2747306436870453,-0.2995335000267454,10.1281300436802,0.0445498923519357,0.0548279606932828,-0.0284968101838602
486,4860,-0.0289732383307608,-0.0020640322566509,-0.0212449849745273,0.0103295000428359,0.3054692136817393,-0.2067247000040876,10.195045948146252,0.076954926780547,0.0347748538326923,-0.068633914040157
487,4870,-0.0121083990678611,0.0019596298522456,-0.014763635305694,0.0081236572042141,0.346025139458227,-0.0733520369710141,10.588383729010744,0.0412379338469374,0.050575216043183,-0.0540141040096546
488,4880,-0.0465806863278688,0.0003687677678826,-0.0172938045275684,-0.0080100797929154,0.2985166364089705,-0.206968689732919,10.04852987156822,0.0705048868582638,0.0290408951306186,-0.0106305017144429
489,4890,-0.0089240067032942,-0.0012544089959555,-0.0124710029673177,0.0035543141164585,0.2089776683445914,-0.2171739554792522,10.299310262920878,0.059378295644631,0.0238539895315603,-0.1008058684656169
490,4900,-0.0089240067032942,-0.0012544089959555,-0.0124710029673177,0.0035543141164585,0.2089776683445914,-0.2171739554792522,10.299310262920878,0.059378295644631,0.0238539895315603,-0.1008058684656169
491,4910,-0.006601009981015869,-0.0021243709793602526,-0.010666306406382636,0.003005944585245616,0.1956605057427064,-0.1792698461223564,10.298005547909204,0.05957615646669522,0.02187767690082929,-0.08874281262675904
492,4920,-0.004278013258737537,-0.0029943329627650055,-0.008861609845447573,0.0024575750540327315,0.1823433431408214,-0.1413657367654606,10.29670083289753,0.05977401728875945,0.01990136427009828,-0.07667975678790118
493,4930,-0.0019550165364592056,-0.003864294946169758,-0.0070569132845125105,0.0019092055228198473,0.16902618053893642,-0.10346162740856481,10.295396117885854,0.059971878110823676,0.017925051639367265,-0.06461670094904333
494,4940,0.0003679801858191261,-0.00473425692957451,-0.005252216723577447,0.0013608359916069631,0.15570901793705144,-0.06555751805166901,10.29409140287418,0.060169738932887906,0.015948739008636255,-0.05255364511018547
495,4950,0.0026909769080974578,-0.005604218912979263,-0.003447520162642383,0.0008124664603940787,0.14239185533516646,-0.0276534086947732,10.292786687862506,0.06036759975495213,0.013972426377905247,-0.04049058927132761
496,4960,0.0050139736303757895,-0.006474180896384016,-0.001642823601707321,0.0002640969291811948,0.12907469273328145,0.01025070066212258,10.291481972850832,0.06056546057701636,0.011996113747174235,-0.02842753343246976
497,4970,0.007336970352654121,-0.007344142879788768,0.00016187295922774278,-0.00028427260203168917,0.11575753013139647,0.04815481001901836,10.290177257839158,0.06076332139908058,0.010019801116443225,-0.016364477593611898
498,4980,0.009659967074932453,-0.008214104863193522,0.0019665695201628065,-0.0008326421332445736,0.10244036752951148,0.08605891937591417,10.288872542827482,0.06096118222114481,0.008043488485712215,-0.004301421754754037
499,4990,0.011982963797210784,-0.009084066846598274,0.0037712660810978703,-0.001381011664457458,0.08912320492762649,0.12396302873280998,10.287567827815808,0.06115904304320904,0.006067175854981205,0.0077616340841038245
500,5000,0.014305960519489116,-0.009954028830003027,0.005575962642032934,-0.0019293811956703423,0.07580604232574151,0.1618671380897058,10.286263112804134,0.06135690386527327,0.004090863224250195,0.019824689922961686
501,5010,0.016628957241767446,-0.010823990813407779,0.007380659202967998,-0.002477750726883226,0.06248887972385653,0.19977124744660155,10.28495839779246,0.06155476468733749,0.002114550593519185,0.03188774576181955
502,5020,0.01895195396404578,-0.011693952796812533,0.009185355763903058,-0.0030261202580961102,0.04917171712197152,0.23767535680349736,10.283653682780784,0.06175262550940172,0.0001382379627881715,0.04395080160067738
503,5030,0.02127495068632411,-0.012563914780217286,0.010990052324838122,-0.0035744897893089946,0.03585455452008654,0.2755794661603932,10.28234896776911,0.061950486331465944,-0.0018380746679428385,0.05601385743953524
504,5040,0.023597947408602445,-0.013433876763622038,0.012794748885773186,-0.004122859320521878,0.02253739191820156,0.3134835755172889,10.281044252757436,0.062148347153530174,-0.0038143872986738485,0.0680769132783931
505,5050,0.02592094413088078,-0.01430383874702679,0.01459944544670825,-0.004671228851734762,0.009220229316316553,0.3513876848741847,10.279739537745762,0.0623462079755944,-0.0057906999294048585,0.08013996911725096
506,5060,0.028243940853159108,-0.015173800730431543,0.016404142007643313,-0.0052195983829476465,-0.004096933285568427,0.3892917942310805,10.278434822734088,0.06254406879765863,-0.0077670125601358685,0.09220302495610883
507,5070,0.030566937575437436,-0.016043762713836295,0.018208838568578377,-0.005767967914160531,-0.017414095887453407,0.4271959035879763,10.277130107722412,0.06274192961972286,-0.009743325190866878,0.10426608079496669
508,5080,0.03288993429771577,-0.016913724697241048,0.02001353512951344,-0.006316337445373415,-0.030731258489338414,0.46510001294487213,10.275825392710738,0.06293979044178707,-0.011719637821597888,0.11632913663382455
509,5090,0.0352129310199941,-0.0177836866806458,0.0218182316904485,-0.0068647069765863,-0.0440484210912234,0.5030041223017679,10.274520677699064,0.0631376512638513,-0.0136959504523289,0.1283921924726824
510,5100,0.0352129310199941,-0.0177836866806458,0.0218182316904485,-0.0068647069765863,-0.0440484210912234,0.5030041223017679,10.274520677699064,0.0631376512638513,-0.0136959504523289,0.1283921924726824
511,5110,0.0003102050231358,0.0102220273389614,0.0254914557694349,0.0016706090725072,-0.0599661224358563,0.5203667452080435,9.930112368344629,0.0420371442668284,-0.0090975300892788,0.0399518832396857
512,5120,0.0357365967676512,0.0051089259029638,0.0332977000199767,0.0082675698723538,-0.1409450462561088,0.1368142268301292,10.014223644186211,0.0532457872777815,-0.0137582670160761,0.0471525288745953
513,5130,0.0304672457690983,0.0134157913808939,0.0188061521127425,-0.0075380049304472,-0.1401725595095129,0.3725082017618536,10.399704251181047,0.0619538780022483,-0.0287571481211599,0.0750839389959639
514,5140,0.0152874834393518,0.0032676052665672,0.0208804300144193,-0.0033962999014769,-0.1877214096275707,0.0944649078877537,9.794246479826263,0.0455339347533157,-0.029054184193165,0.041819049787923
515,5150,0.0328689814398582,0.0121579591554553,0.0187799574053868,0.0087235016143424,-0.1870756064337554,0.327935854255393,10.072014644657314,0.0851535042590618,-0.0161642729524613,0.0638978258984954
516,5160,0.0326661444608393,-0.0007154095626771,0.0086163933961548,-0.0056172540512411,-0.1752995477765004,0.1908104043167098,9.718501585891298,0.0446934232560696,-0.0194210710128499,0.0756355572019657
517,5170,0.0075679446530654,0.0019614253065808,0.0381230882422999,-0.0098408092484528,-0.115240890218481,0.3662417860556563,9.936972776133045,0.0385473769540162,0.0034210513758412,0.0574031538287889
518,5180,0.0170089663471653,0.016609622746717,0.0329234496488243,0.0089989021478439,-0.1488474649401946,0.3562918429919505,10.353123453812907,0.032263982716874,-0.0129953237348052,0.1114884160373937
519,5190,0.048802983698375,-0.0071311370898695,0.0327677841934389,0.0104376973550346,-0.112189706817316,0.239032299140361,9.990151944835658,0.0685866264568474,-0.0267398154357628,0.1143303945529652
520,5200,0.0374595885592424,0.0112506314214194,0.0405790994912229,0.0169684811345058,-0.1806107375317248,-0.0697178609813254,9.959261815782671,0.0768906392480529,-0.0232269149054912,0.067045801778397
521,5210,0.0285557307554766,0.0068726357707413,0.0513035077418663,-0.0012307685660763,-0.0317977399850798,0.1717360158866059,10.199664574184476,0.1075488785634983,-0.011959525981665,0.0842785871453739
522,5220,0.0243366890842457,0.0057601397652901,0.0315189882615355,-0.0016231667841085,0.0138056711643124,0.2500030579206143,9.853142443642568,0.0802951998368108,-0.0226826397616719,0.0255713064838261
523,5230,0.0289013906372855,0.0048635654366168,0.0476801703646847,0.0237187295840414,-0.2586724269392119,0.0535207951049203,10.238719411145674,0.0603125849573544,-0.0411494737677975,0.0511078680827724
524,5240,0.0374061953252367,0.0274528676814727,0.047046534895689,0.0099930002461376,-0.0873758178451267,0.102316631240839,10.027480007453024,0.0628534076354819,-0.0280385999153575,0.1067110223338365
525,5250,0.0599069133920684,0.0159812927055371,0.0562535681463827,0.02012291854032,-0.1112984960179627,0.2697123363040766,9.724945352195173,0.1084916416011361,-0.0291497175264915,0.0761074802553688
526,5260,0.048481243815557,0.0063343907338803,0.0370535249363236,0.0165062941059729,-0.0025386531216436,0.0892259262876169,9.92909051345393,0.0756643176512493,-0.0250740998669086,0.0500740339437107
527,5270,0.04750611322006,0.0151473258773952,0.0192469134884002,0.0108829137799985,-0.2036575853363707,0.255851848584011,9.787896967528663,0.0423153183578018,-0.0149498137908038,0.0613322718864923
528,5280,0.0284976311277267,0.0128843906743096,0.0191983346119264,0.0090557238216598,-0.2984522057316543,0.3086912363649879,10.027098749935998,0.1032461187647625,-0.0216474300717315,0.0920758332178556
529,5290,0.025005673672483,0.026361027417906,0.048990791590708,0.0341770711791087,-0.2692136285719426,0.2626906561903688,9.918955640690733,0.0508672488895195,-0.0160374539479338,0.0699056796868248
530,5300,0.0346545133283024,0.0160433765763256,0.0596125671102974,0.0066959923994761,-0.1575408388302389,0.3008347571284182,10.16707597896688,0.0669810604401165,-0.0329607748537222,0.0686808014628546
531,5310,0.0433377672755084,0.0160149817589107,0.0567283516821581,0.0061405659250866,-0.1815705331376341,0.1470892781258992,10.41890257872517,0.0760544072215648,-0.0141833716378696,0.0850105750462188
532,5320,0.0340063860202161,0.025010811758926,0.0410107271502127,0.0175502980500704,-0.1378831999264381,0.1546012428806255,10.529956411135796,0.091198892094806,-0.039804987828754,0.1173825857186105
533,5330,0.0312437050791815,0.0175292343265999,0.029551923515911,0.0257726205993997,-0.3001970052879465,0.257945205040989,9.903689024895405,0.064379052602551,-0.0341040007714403,0.0520464810395214
534,5340,0.0540185945475012,0.0302822863857389,0.0619885254117343,0.0217274798540093,-0.2200295889722842,0.2315715254507912,10.03205621139585,0.0774158489439459,-0.0252134073403854,0.0813909308757821
535,5350,0.0292687456629844,0.0141716006153281,0.0445334146546457,0.0165229998323921,-0.2744942593409225,0.0877597567621941,10.440475676618098,0.1036065893213449,-0.0124767519449342,0.0612422284861746
536,5360,0.0396308822321216,0.0102008755338128,0.0436356868400037,0.0166672811432955,-0.1015054474479083,0.1309999614821659,10.261969241428046,0.0826450756019678,-0.0251830407806097,0.0241394096703311
537,5370,0.0326712535556141,-0.0033466761624194,0.0175849035054209,-0.0109719427018466,-0.1436801290273204,0.3145151158883233,9.897032151078854,0.0880578111226455,-0.0044842063212367,0.1314990543744789
538,5380,0.0312733915605606,0.0090935543539275,0.0411251124230542,0.0033770954624317,-0.2776327620580794,0.141748447711895,10.345960594142127,0.0745169003622559,-0.0280986025291369,0.119781245096364
539,5390,0.0440048856874491,0.0127371361749293,0.0321784341610648,0.0005795533305959,-0.1764929802312746,0.3857640702302465,10.025797811231008,0.0631708618864501,-0.0358685034877218,0.0744184576578688
540,5400,0.0200066960718609,-0.0016748778817791,0.0086985873390923,0.0127998938042811,-0.0876358189746858,0.2954171200420974,10.51446688208036,0.0549271512089317,-0.0379233425790156,0.0486235210167745
541,5410,0.0163436378561422,0.0027293559400854,0.0188691640437457,0.0061753187517091,-0.2482658498836867,0.1931235327672599,10.424539500861584,0.1077967247553842,-0.0338594490986699,0.0739374579373243
542,5420,0.0212375167463536,0.002519887011027,0.0334503155996009,0.0115404553378045,-0.2566991798539546,0.1833995676391645,10.16953975708677,0.0915637996999506,-0.026900056946226,0.0487247292351556
543,5430,0.0286141619406562,-0.0042367366072859,0.0380019529638477,-0.0120333761690589,-0.1905296124084858,0.1487371272458206,10.557786896575092,0.0941150361949207,-0.0239182407524807,0.1597025318395347
544,5440,0.0203024083085931,-0.0045185419964518,0.0077010823980027,-0.0113162041656834,-0.4102556774738377,0.3213532083118813,10.46419495631494,0.0836534207457093,-0.0426660434033781,0.1157312444340889
545,5450,0.0183446394403699,-0.0143345823562178,0.0258092090629601,-0.0066573797576769,-0.2402372424727528,0.1811824151548536,10.381900582014458,0.0923029072495097,-0.0276949055725258,0.1134452208073545
546,5460,0.0105050466235039,0.0002757016537873,0.0163017790001339,0.0016408151284609,-0.3513156070791103,0.2361019828639027,10.179795543281235,0.0917288351996115,-0.0233439074828124,0.0154508123758915
547,5470,-0.0040426073144407,-0.0003095042122108,0.0069460321352082,-0.0258511538119799,-0.4226803077381711,0.2273204004532736,10.123063376063811,0.1171957217311368,-0.0416805909381047,0.1554766840961024
548,5480,0.0076079304475,-0.0182955303228624,0.0121519603953821,-0.0151960823147382,-0.391080482443008,0.2700278568637466,9.999786381897673,0.0733372370325521,-0.032359792561721,0.1580775803633018
549,5490,0.0321199143222097,-0.0092374308673413,0.0192716796115501,-0.011168693622244,-0.1964941562480741,0.3810868580294899,10.22121554514293,0.0766912052862146,-0.0303933971202585,0.1555150863639685
550,5500,0.0220880653379153,-0.0199970376256054,0.0556737833698128,-0.0042039123965869,-0.1951817355072142,0.2554538481226324,10.234784604900408,0.0888123732735101,-0.037890008294882,0.1284800087662616
551,5510,0.0189005273725256,-0.0123399561841323,-0.0015254820949912,-0.0039319058170148,-0.1940184796670526,0.4350985121442751,10.193859139353163,0.0489667370532614,-0.0263511746111765,0.0709342017976583
552,5520,0.0086594376287211,-0.0229665496619719,0.0331089883618857,-0.0227187089973463,-0.1390124578453037,0.3796435646325476,10.153712575001036,0.083668251472955,-0.0228487300586358,0.13430301222682
553,5530,0.019323973495927,-0.0020462509421594,0.0067328456126578,-0.005721359716219,-0.2276064974335805,0.2133422832553345,10.249322611173843,0.073439383736934,-0.0282617604256052,0.0591552815945102
554,5540,0.0093599824427703,-0.00408283729486,0.0321378777604142,-0.0258023871264608,-0.319649800291481,0.3268367274661021,10.350407335911216,0.1088468557247583,-0.0389946132236681,0.0303187329449854
555,5550,0.036538520047783,-0.007559539491785,0.041670919417794,-0.0232886774785179,-0.0367573087383951,0.1914359345607922,10.188076298488571,0.106732504241251,-0.0383565588621167,0.1029568251308378
556,5560,0.0179797221769075,-0.0001771919393886,0.0109846274791826,-0.0284134844841757,-0.2971473765952681,0.2206224340134543,10.074386219893244,0.0993373182070777,-0.0379694657092852,0.1397264554479586
557,5570,0.0153167511501868,-0.0096114505949964,0.0072324533498495,-0.0174953379193109,-0.1640882759313131,0.3345137499010893,9.982140666702865,0.095843748141792,-0.0254820109274143,0.0997312156956054
558,5580,0.009147986419494,-0.011964577808482,0.0106072698416533,-0.0315232669770105,-0.2883256207647175,0.2710968132306766,10.325466087138256,0.0715582291735044,-0.0321360452578388,0.1063409334261995
559,5590,0.0206374797156879,-0.0099603828748769,0.0070365941034238,-0.035625708443329,-0.2162197430542559,0.1592584328440758,9.991459073536076,0.1101443515418687,-0.0266166305360214,0.1492742235026833
560,5600,0.0209482474875331,-0.0150093226923902,0.007036381546627,-0.0165090772948371,-0.285991636969524,0.4371758245445179,10.225735050049432,0.1571610070339534,-0.0366602365337166,0.0773807684353278
561,5610,0.0162367047111027,-0.0300689003908656,-0.001986813970254,-0.0176302188425814,-0.1766492534614185,0.2523521653772979,10.089855745191985,0.0890547462840748,-0.0347691435229562,0.0784127508171349
562,5620,0.0161576402369528,-0.008147057511317,0.0200910040990734,-0.0205888717767003,-0.2574785626889684,0.2353456899490249,10.334004238270587,0.0932642490307198,-0.0310925885771296,0.1870078912355528
563,5630,0.0087145683082844,-0.0190179081142737,0.0082181385017048,-0.0290557375390605,-0.0768169888320864,0.5976956357200033,10.322048246063298,0.0964058351667364,-0.0597780409339051,-0.0237675557915666
564,5640,0.0019849611452204,-0.0192161818344389,0.0118062507136006,-0.0156023834135042,-0.3387121195773028,0.2806588651187041,10.386758965151287,0.067562242133307,-0.0311454045538891,0.1091414233964871
565,5650,0.0242676406594333,-0.0173123281559597,0.021389693762308,-0.0143365429545323,-0.2295478923387136,0.2737200589595312,10.333361404629212,0.108159340396289,-0.0330694732527493,0.0894907844930541
566,5660,0.0106407304579804,-0.0220159455688004,0.0163622982425634,-0.0227165716776278,-0.2856617307938218,0.5099785250561449,10.075893539172576,0.077282443126223,-0.012173234956539,0.0972013417206474
567,5670,0.0070920842296256,-0.0312041327684159,0.02937308667941,-0.0308013871996586,-0.2802883194012578,0.3578014629981874,10.520009059395312,0.1035785987917718,-0.0360750876044608,0.125858037334611
568,5680,0.005053967780176,-0.0148950925748969,0.0001037851435022,-0.0322259413568697,-0.1227361111656451,0.5145796637241489,10.13122640834824,0.1035815276918787,-0.0440493739567172,0.0800442216367286
569,5690,0.0181859977552095,-0.0137988359988843,0.0295413456715626,-0.0195921875699957,-0.4432180282236199,0.2517241306575047,10.636283475971194,0.1160864094212428,-0.0246911237409138,0.0908443154749387
570,5700,0.0226655535013754,-0.0262948966511057,0.0352927292101886,-0.0234592451947524,-0.363838300053441,0.279392367858517,10.453534962913723,0.10723238562625,-0.0393189916698244,0.108045850180502
571,5710,0.0035779306122638,-0.0174084644182362,0.0080243644978872,-0.0327833142389445,-0.2918143564539244,0.4827382946363124,10.309912415743009,0.0798996413916366,-0.0438167435794831,0.0844461755513713
572,5720,0.0242190933600657,-0.0085636525778483,0.0242009867319744,-0.0093547394511259,-0.1840102561056907,0.1824621713196741,10.172922118090192,0.1174002046615345,-0.0514375728716807,0.082747058988361
573,5730,0.0194632909783626,-0.0099862534981694,0.0324779921515545,-0.0026938456014529,-0.1969224089634617,0.5442182588043774,10.424866097242017,0.0477103749022122,-0.0530214446355195,0.0745319158910485
574,5740,0.0205210103942995,-0.0033258797552575,0.0310607715862381,-0.0218015223455335,-0.2323174865240326,0.2989895837711293,9.833373412501349,0.1083893549688684,-0.0260158946605926,0.1480492906475141
575,5750,0.0244650461352668,-0.0214685433508118,0.0278910110059708,-0.0235500087024703,-0.1938121237085292,0.3858977997633396,10.164466650460588,0.0741792482997008,-0.0688959509426813,0.0782640604099484
576,5760,0.0230864764320752,-0.0285893814354103,0.0198715759019977,-0.0110873033083029,-0.1207087036791395,0.6156120657599908,10.214853457168289,0.07932124491365,-0.0383604800248663,0.1280110603614811
577,5770,0.0142080490641763,-0.0090464455385833,0.017480228703132,-0.001287819375723,-0.307245684311367,0.2171972711235915,10.344422583043722,0.0775801565870591,-0.0414054703594166,0.1022548355458638
578,5780,0.0266025154892093,-0.0123748944337609,0.0427744765675014,-0.0242945337059556,-0.0810436480151915,0.6172183556631167,10.283332770864222,0.1114520168892265,-0.0351922210876442,0.154650099524511
579,5790,0.022833256689213,-0.0164657702271778,0.0252749944034944,-0.0207095409647123,-0.3298452497999566,0.4450302551873807,10.4005697033913,0.1318517252965829,-0.0452380178344154,0.0749472619685296
580,5800,0.0199783399861616,-0.0124285974012858,0.0397672881375317,-0.03052967752242,-0.2295533146726182,0.5412422636496237,10.462704608436098,0.1278380201736972,-0.0496076859041545,0.1017544666882677
581,5810,0.0269913670104445,-0.0160888048045542,0.0286351437662368,-0.018477430057458,-0.3039872189600031,0.3607549004685835,10.29649539765092,0.1071250252650319,-0.0492019572957377,0.1235581905694913
582,5820,0.0305312211019322,-0.0235276528794284,0.0322981551832288,-0.0248631301086757,-0.2169729663411205,0.4061293946388602,10.05994642094496,0.0864358326959327,-0.044121044172726,0.0755281273190317
583,5830,0.0252424956047342,-0.0195342540008653,0.0261093140641259,-0.0241845521426017,-0.3092558168945467,0.4999750451710285,10.316447063270802,0.086608889049991,-0.0339378710042661,0.1543502352914745
584,5840,0.0189395127745793,-0.0271305533739037,0.0383451521999028,-0.0224448151411083,-0.1877304855944004,0.2678844631201282,10.26133072907892,0.0948793020222933,-0.0261388181870676,0.063269909216082
585,5850,0.0246246545715265,-0.0233314029171072,0.0296915084320791,-0.0328623988011904,-0.2099604816562585,0.4687468553874654,10.355485477584482,0.1275576622812366,-0.0581488920379571,0.0947754564750126
586,5860,0.0132132729802375,-0.0313456139278964,0.0231942827257024,-0.016856075136635,-0.4271688614555194,0.3820941155448574,10.446150966659731,0.0857435275269836,-0.0420478853578803,0.1484666063129732
587,5870,0.0091660802789413,-0.0344753562148413,0.0149652810089893,-0.04144181774198,-0.2665976256969234,0.5319471490335376,10.640587424244057,0.0909947235377616,-0.0358324478597371,0.0844399788632391
588,5880,-0.002518136733291,-0.0323905384676871,0.0220063313049243,-0.0297282682831719,-0.2167064803181441,0.4274813420477966,10.30126604103799,0.0723951447873755,-0.0181198108938897,0.0933893006409669
589,5890,0.0309426012252815,-0.0081367016410842,0.0181253678001063,-0.0380297471081027,-0.2520703161470441,0.3376769711826178,10.313214294824755,0.0939161727889575,-0.0656702706819062,0.0901549699054763
590,5900,0.0190066201033872,-0.0332822459681917,0.0176044773548652,-0.0307866282982365,-0.3386163733531657,0.307378277468836,10.443780380950328,0.088353164017487,-0.0499086289384427,0.151148246224598
591,5910,0.0194523179288099,-0.0043385612131114,0.0169171865854601,-0.0553951268748154,-0.177895121270622,0.4620512753495022,10.09154041828703,0.0848828828214962,-0.0495339440944342,0.1479148996473185
592,5920,0.0278531047972304,-0.0274972287732296,0.0154208591794639,-0.0466257214492307,-0.2256290583304588,0.5123183061889179,10.258946164645478,0.0545918501281468,-0.0267789984932347,0.1054189999389595
