index,elapse_time,susp_fl,susp_fr,susp_rl,susp_rr,acc_x,acc_y,acc_z,rot_x,rot_y,rot_z
0,0,0.0126929024549256,0.0137549801396658,-0.0129669330525407,0.0449616041654109,0.1044606704887154,-0.3743085752884941,9.262301268906146,-0.0686844472641696,0.044657035026348,-0.1009144349119047
1,10,-0.032372973341798,0.0137663907525977,-0.0100721994047247,0.0272306316774023,0.3716250227900551,-0.1341110629545758,9.453365266427376,-0.0519422582586103,0.0494862341879128,-0.1149828981398046
2,20,0.0044487505305043,0.0211487628170629,-0.0092496878171149,0.0248395960381264,0.2978739597375556,-0.3257069817518986,9.392282611467406,-0.0780426950697766,0.0517242886200854,-0.0651395682636027
3,30,-0.0092889005255823,0.0416974135214031,0.0024788874633326,0.0250096111545055,0.3489050592602607,-0.2861626855320289,9.118318122831065,-0.1062744188906807,0.0468982476315139,-0.0798757537446048
4,40,-0.0125055780735061,0.0552184307302057,0.0054784647784896,0.027904915234296,0.3710992011563019,-0.3290095831229616,9.101295381415095,-0.0764147813502748,0.051475225230135,-0.0498751830811797
5,50,-0.0330230978063857,0.0349962134464462,0.0020150276107341,0.0024753855494425,0.2489127980281285,-0.2779820384488626,9.366653167106117,-0.0870644232788351,0.0646999844622199,-0.0801854865117314
6,60,-0.0599297297613256,-0.0034736139986857,-0.0190701439438827,0.0274959272500412,0.1823790652910875,-0.4518224126363969,9.275285577784022,-0.1112550054960854,0.05536954517127,-0.1223819007214699
7,70,-0.0282842075034975,0.0259105617190437,-0.013587033113994,0.0185633754502216,0.4292829766774937,-0.35805863535042,9.105833514263358,-0.071001719670775,0.0590014042923313,-0.0645887027286287
8,80,-0.0321111928969436,-0.0014906617404538,-0.0148745598604612,0.0127649455455048,0.2765285730975156,-0.2235103644274294,9.443759709077868,-0.0908155908910167,0.0636213887394804,-0.1338321251214854
9,90,-0.033892974718682,0.0133622106894905,-0.0100788561053573,0.0164064982402344,0.2890951089633532,-0.4841731049248349,9.091345710292709,-0.0766904747876745,0.0467456343507248,-0.0794848948581516
10,100,-0.0239698878337087,0.024268174362543,-0.0249583051137225,0.0050329378435317,0.1705482976198593,-0.36712544444004,9.280259713403934,-0.0898353551932657,0.0561592948981587,-0.0490416011123954
11,110,-0.0102179644960847,0.0220291812098231,-0.0183386958509263,0.0265079259484871,0.4574249248207502,-0.2587966077858173,9.077932205828846,-0.1452279667066539,0.0615896147124076,-0.1462920084363345
12,120,-0.0197874189439708,0.0119658197845953,-0.0350210841050747,-0.0103389018708451,0.2952071119886426,-0.306090799803744,9.419878126244054,-0.0875073198531644,0.0350591691319837,-0.0718286500644746
13,130,-0.019510877709517,0.0213064338585318,-0.0172613870447564,0.0052239470252155,0.3739798255795623,-0.4255905315073888,9.308427958546991,-0.0828331994492963,0.0535222381699808,-0.0716652690127016
14,140,-0.0185312198316013,0.0118247158696865,-0.0238038921022977,0.0153186967889399,0.371117697016583,-0.1770106111050498,9.203717074582926,-0.1194855930328459,0.0433715117872195,-0.1286605607090831
15,150,-0.0258065661587919,0.0174210563019882,-0.0102440803050173,-0.0045660512744147,0.1262775697149085,-0.3619747364916635,9.26125689523214,-0.1153883463277562,0.0380176801798074,-0.1072463407106331
16,160,-0.0055207785811399,0.009483010026552,-0.0307327008794325,0.0303727944140095,0.1366555644256348,-0.3026201936872167,9.150120109868777,-0.1214355958466543,0.0336166419946343,-0.1292136491904483
17,170,-0.0312693670869151,-0.004425160324501,-0.0166015781180029,0.0037063578787209,0.1827905944463789,-0.3969398164005482,8.845230602091672,-0.0699216106188068,0.0442278792110242,-0.1035296804849159
18,180,-0.0266453029419063,0.0115696633999741,-0.0178203923106204,0.01192886890315,0.4192216430812934,-0.3052238150568526,9.254766186116662,-0.1157874206308862,0.016151590918946,-0.1249968982037383
19,190,-0.0274645696166033,0.0051116306829111,-0.0172164913575761,0.0148717697072812,0.3109497648685456,-0.3389298446585514,9.308872634707935,-0.1078583736161317,0.0557000345441373,-0.0529491779054004
20,200,-0.0095925665121636,0.0369317900810133,-0.0090721800507724,0.0150264082020092,0.2873425340607687,-0.3247840366017588,9.08716013088326,-0.1485106530786404,0.0241426383971117,-0.0693945130019562
21,210,-0.0372714506461257,0.0153117431330958,-0.004013048253499,0.0221655239710416,0.3267995194525225,-0.1117079501551005,9.17114574848932,-0.1024127305620136,0.0271026558310964,-0.086173718036746
22,220,-0.0106815168730217,0.0214702193895882,0.0002789687441206,0.0256775085874899,0.4074939252863806,-0.3743130760808589,8.660407388887837,-0.1291127214960197,0.0570334857351962,-0.0910320356035418
23,230,0.0041850840343463,0.03154726452673,0.0006150168952662,0.0346058393581771,0.0675017918201431,-0.3360930219564279,9.021067009048972,-0.0794581080930592,0.0447961141436338,-0.0148020757378496
24,240,-0.0365895712724851,0.0138708324062264,-0.0234474064558708,-0.0019500168894306,0.1680927504859615,-0.1907043608079023,9.349414580439994,-0.1044465143367642,0.0440830441011101,-0.1108868688654644
25,250,-0.0180751899478223,0.0150396686244033,-0.0238621526215401,0.0112423462390862,0.33362854598162,-0.412605961354213,9.16461267824766,-0.0612561773425281,0.0382875945186385,-0.0855049063761044
26,260,-0.01940424747771,0.013911412575326,-0.0197008158023046,0.0238587530232028,0.2197370052118027,-0.3286086849178198,9.568007247842296,-0.1012671187198561,0.0497499169292875,-0.0808869332496555
27,270,-0.0004485211526093,0.0276821417576197,-0.0051395308098526,0.022846955439023,0.1949262081840588,-0.21574655080852,8.959577809247595,-0.0778444759930838,0.0518897156924999,-0.1044305244392422
28,280,-0.0080814728415642,0.0341558791530633,-0.0149837397709349,0.036397068606546,0.2283417603148083,-0.2419370071797921,8.854363483885589,-0.0972657367843516,0.0386233898328282,-0.0407920729529731
29,290,-0.0106847962575577,0.0207495736368306,-0.0179530165359415,0.0230520644740832,0.2754190393022313,-0.4358386792612078,9.64734671539904,-0.1212330655379872,0.0204363174850686,-0.0842180929603072
30,300,0.0065410032453496,0.0437865143547054,0.0098515301797032,0.0217164910655662,0.1860940060242554,-0.193368596632814,8.87184215733222,-0.0514639540281251,0.0248944976253911,-0.0671161074504423
31,310,-0.0230772765757218,0.0180660175654409,-0.0231925587686779,-0.0071077675334397,0.3599384436074664,-0.2286391085663543,9.263568675799451,-0.0552596640970511,0.0369919235149222,-0.0682607948077886
32,320,-0.0060624318122041,0.0238472586740248,-0.0246409170861199,0.0311350130468491,0.1466041333212187,-0.1804299206025648,9.20457610714254,-0.0848258168538591,0.0555362408769352,-0.0754503397555057
33,330,-0.0042691920967398,0.0373705343427183,-0.0125026277972212,0.0190921990460144,0.3658440792594883,-0.4607034300791701,9.405525982038291,-0.0786634446912482,0.0325423602635283,-0.0736833996253799
34,340,-0.0150018570812907,0.0119848902653465,-0.0136587358207454,0.0058531207285385,0.1104779107208644,-0.2067925390117579,9.649342946972713,-0.0778093683977704,0.042713515274215,-0.091920208872121
35,350,-0.0182687706248764,0.0294503411034694,-0.0045404851566116,0.0142558904497744,0.1539503708994548,-0.3382180994609636,9.600295760975351,-0.0910614199053087,0.0449920905603277,-0.0617291492784786
36,360,-0.0308935258110203,0.0030221173952885,-0.0249492635268449,0.0067165233353628,0.2444106027124644,-0.2933293201259243,8.979981287385927,-0.0896226009229279,0.0304829284423506,-0.1220228198835942
37,370,-0.0104304059879573,0.0073457598573207,-0.0202041636723774,0.0055980749025307,0.3505780883259106,-0.174241766276986,9.36825609912883,-0.0930023026672191,0.0294035835302902,-0.1152796368339392
38,380,-0.0104701170036799,-0.0019774570958055,-0.0305899897039651,0.0130078609808055,0.1413781330661994,-0.1420976361959814,9.29269965997435,-0.0500181326384869,0.0413115868703405,-0.0403307253427801
39,390,-0.0027640732312366,-0.0075375260824308,-0.0066294415954936,0.0091193158719364,0.0976672908501724,-0.2094714010461432,9.363454848236168,-0.0691128057430067,0.0427016936370016,-0.0504351370538512
40,400,-0.0338898643197412,0.0210068796205885,-0.0119404903843568,0.008307872534794,0.199393438583213,-0.0973066316949489,9.356883678623444,-0.0655419992331745,0.0431363970553485,-0.065494336973548
41,410,-0.0099180546329116,0.0307011477302548,-0.0248243616630321,0.0030270675787583,0.1369272992483743,-0.1468750280225625,9.542301577875168,-0.0964068952728092,0.0447888310988025,-0.1092266225584351
42,420,-0.0192729345190145,0.0139750082386323,-0.0129031908944587,-0.0175703784032226,0.2725417249547416,-0.3588746506906916,9.414393495363743,-0.0806044671553099,0.0107937108247095,-0.0576629861942404
43,430,-0.0165112880451357,0.0069899616537801,-0.012439843117333,0.02083867867404,0.1015929684860624,-0.0874110278443337,9.565522441507392,-0.0661166472128881,0.0456084944419129,-0.0996428874700997
44,440,-0.0098764508064004,0.0169403141525472,-0.0078199609720622,0.0039791201684605,0.0115580142027842,-0.2019990550395154,9.70296270944784,-0.1095761007214668,0.031442147168768,-0.0066826058342343
45,450,-0.0219158032531282,0.0082266554242728,-0.0288092269814669,0.0045000050975109,0.1589906206932498,-0.1930054236418334,9.01509195489184,-0.0817664459977062,0.0227289839905531,-0.0638580933799722
46,460,-0.0277199963294566,-0.0098529400975066,-0.0327869858025418,-0.0006752179228901,0.3467271840531176,-0.2573390261632514,9.280142203072728,-0.0707939211603101,0.0400816509394002,-0.0898269649245345
47,470,-0.0225717617239987,0.0069687047283881,-0.0089718556968898,0.0203007208862426,0.0142767728348741,-0.2365218934281127,9.127706343437064,-0.0753316992132048,0.0335406578752386,-0.0848790181734296
48,480,-0.0266797757038783,0.0059056986941435,-0.0284636735053586,0.0174450546149753,0.2703601220886537,-0.1494015251588542,9.765634942436352,-0.1042627128509362,0.0420209135320897,-0.0682048743792302
49,490,-0.0231373843870804,0.0080822606161909,-0.0092677476763962,-0.0076610222076621,0.1491256644823344,-0.1250066759353501,9.308384529538056,-0.0902701147557357,0.0308876031209492,-0.1086279149581689
50,500,-0.0302719435695249,-0.0094599466084425,-0.0261533490061381,0.0017738905454596,0.0873977030638211,-0.215941289309936,9.31911504299773,-0.0639647515254506,0.030840812923181,-0.0290028647185292
51,510,-0.0338767784570988,-0.0058740232198679,-0.0381449592313388,-0.0306477719156284,0.18971413363183,-0.2254459488734615,9.553816817722364,-0.1126288836567974,0.0388453918214021,-0.0775913894847202
52,520,-0.0237929793583092,0.0057235303757549,-0.0234006573880994,-0.0266152807155095,0.1699724857860677,-0.3792013517714881,9.632963241127774,-0.0892110376513944,0.02968461790546,-0.0923114696620913
53,530,-0.0291138847422013,-0.0040344851462497,-0.050121886330991,-0.0280012743671261,0.2081741127980718,-0.0016153731458393,9.702496382556085,-0.0386587418817621,0.0022095795537273,-0.0921486661902728
54,540,-0.0439305650459299,-0.0083968386934355,-0.0500125809623442,-0.0308373870968341,0.3294910266884365,-0.1362786074246904,9.249429813128744,-0.1188516276791339,0.0458967440967008,-0.0907036780950232
55,550,-0.0438545178209439,-0.023590198185445,-0.024111392613755,-0.0340182319051489,0.1669323992593747,-0.1743756809414207,9.069822158257884,-0.0692280986080728,0.0269793213594253,-0.0187913260493331
56,560,-0.0424369774791536,-0.0167495224216971,-0.0312151914161753,-0.0103119192520545,0.213693709522398,-0.251169113160462,9.4273259284386,-0.0986709180314463,0.0359059378092228,-0.0216642132185664
57,570,-0.0467752160005835,-0.0086526645343034,-0.0142872037700669,-0.024269577011781,0.2645460559870838,-0.2062854403212828,9.653060839608736,-0.0907731140826203,0.0399298903279665,-0.0985635400275736
58,580,-0.0398844078661692,-0.0089157682248305,-0.0352332621666172,-0.0301111659224722,0.2827085932353148,-0.4043560351516713,9.409462938793013,-0.0869408650850038,0.0133534532909392,-0.0171530320586602
59,590,-0.0403338142305688,-0.0068761998607357,-0.0426230128048443,-0.006309270323429,0.0608491095007949,-0.0727948853925237,9.186131173140694,-0.0612313560388746,0.030690454635209,-0.0258520270826997
60,600,-0.0335420566228444,-0.0061939799594569,-0.0565618103192064,-0.017227027859241,0.0770789704454617,0.0097418615104783,8.978239754836252,-0.0821097641724239,0.0264759450195185,-0.0827341823263973
61,610,-0.0453456255953329,-0.0144059730832828,-0.04616624762884,-0.0168626420576335,0.3333685252645039,-0.2789244528541231,9.310019801743117,-0.0575285898110665,0.0327226906829956,-0.0564208486592681
62,620,-0.0407803283541922,-0.013202850351695,-0.0377850518284985,-0.0259789759655547,0.032766800445128,-0.163171276236876,9.232202986544666,-0.0993335521319418,0.027460185628832,-0.0482914558683099
63,630,-0.0483492130149577,-0.0353790963373742,-0.0368027643853938,-0.0279861470817843,-0.0043921225515379,-0.3391850160412408,9.44631089708575,-0.1021003180125088,0.0216552064894449,-0.0478311707844839
64,640,-0.0367880710709827,-0.0025995566377731,-0.0418276594334377,-0.0211127163011254,0.1555224971344955,-0.1257588862999231,9.549721381531764,-0.0491236536201531,0.0310253307955412,-0.0371264471356205
65,650,-0.0546755181116505,-0.0089464854350062,-0.026189787213308,-0.0168795122741682,0.2091890534502745,-0.065515706397675,9.356659976354782,-0.0755937942342071,0.0247278435696763,-0.0225194888561009
66,660,-0.0359444536426075,-0.0052197349804292,-0.0204546873996934,-0.0076660952312145,0.0726000626398746,-0.1212872626841831,9.93592313207158,-0.069775831634324,0.0169108308736032,-0.0695830206829176
67,670,-0.0626951222922069,-0.0117763619045783,-0.019219191125417,-0.0224379865406285,0.0447134607906671,-0.1765011459860015,9.75816599400137,-0.0796962467366903,0.0189603900687515,-0.049452855803287
68,680,-0.0380933030931836,-0.0171635033543721,-0.0337491744302358,-0.0113367193618386,0.2679135530214935,-0.2383507508924276,9.765223247233989,-0.0480452093820077,0.0233172908364809,-0.1129001677237165
69,690,-0.0251549987332598,-0.006894835351138,-0.0267562552105255,-0.0117848466183622,0.2336618201733851,-0.025180720567189,9.680449812094986,-0.0355393252709118,0.0201045803373348,-0.0416281978406305
70,700,-0.0478976716633775,-0.0017078013547575,-0.022854020324704,-0.015371145255928,0.0643031880430405,-0.1372563656333383,9.535426662306374,-0.0713858984548337,0.0313814516239125,-0.0669550557917242
71,710,-0.0306515994045673,-0.0179308554673742,-0.0261190957233835,-0.0189571930862744,0.0551930294213631,-0.2462202188440995,9.631165546761778,-0.0267144415032863,0.0094209170594396,-0.1131745420983166
72,720,-0.0351244293395991,-0.0118482177774905,-0.0271268778027367,-0.0368263282794256,0.0825847516609739,0.0330687874563555,9.707160204965502,-0.0567200259805185,0.0354829496080573,-0.0296389523092561
73,730,-0.0119833869344328,0.0011332594288357,-0.0309209941144491,-0.0210340728649089,0.1451725505868357,-0.3780352097010351,9.36398764515954,-0.0956467116672205,0.0264183446568769,-0.0406606533577393
74,740,-0.0523816132512786,0.0164476564175055,-0.0077709656299075,-0.0099118644825431,0.0717262380212183,-0.0196171578692954,9.707572861027984,-0.0840446591338779,0.0309029965652239,-0.0104771886620837
75,750,-0.0351616964726839,-0.0084681397565327,-0.0307826605703743,-0.0168895996197506,0.0816085202448081,-0.2054290825736735,9.295969314640256,-0.0759732110658804,0.0107906294878626,-0.0217716438223034
76,760,-0.0238956219164651,-0.0127009213450999,-0.0255019368040248,0.0010943350124158,0.2828707789556117,-0.0627166975898634,9.618190786778625,-0.0668383995188206,0.0306452887071499,-0.0519616514463867
77,770,-0.0239788667264456,-0.0147652807141999,-0.0146294908038534,0.0037307473231031,0.2275880323522298,-0.2315912927702687,9.58011026094367,-0.0452226908418576,0.0255807158280567,-0.0445233128616166
78,780,-0.0189716086638776,-0.0215837832425508,-0.0215125827379091,-0.0199739572765605,0.1018431283745508,-0.2236142501552946,9.416578307655564,-0.0243509991576029,0.0198885588627483,-0.0472524002755067
79,790,-0.0073649386953994,0.0180208921459356,0.0009548949479931,0.0051875426690619,0.2214117517061543,-0.2384221938661061,9.276851496081305,-0.0604557862449237,0.0075195977304695,-0.0992073216440977
80,800,-0.0076229414297163,0.005278412049616,-0.0033626620732461,0.0071007580135299,0.1355427823595709,0.0606901682817334,9.63634371846628,-0.0277223261797083,0.0439403103997396,-0.0303313981329405
81,810,-0.0159298666595867,-0.0152354142340642,-0.0154131816865658,-0.0296929567608089,0.1653780588208336,-0.3070246981297558,9.8331886123208,-0.0509692217366711,0.0238644194837679,-0.0243961876852
82,820,-0.0033294011444345,-0.0008910389588451,-0.0027773409849266,-0.0141365137929183,0.1171442149325741,-0.1246592286927125,9.557035236944497,-0.0419119168521854,0.0318923304161562,0.0090004664720567
83,830,-0.0005528711862597,-0.0019915970340054,-0.0062438056224401,0.0110708030223204,0.3299421685518841,-0.0498937977560139,9.683655430692616,-0.0409675244475116,0.0056775864243367,0.0024009302469308
84,840,-0.0191169983292959,0.0213862716994255,0.0130160358555121,0.0095967492744151,0.1124918769671111,-0.049541331630854,9.505893920782404,-0.0417437097780412,0.0206956844713753,-0.0477968447112851
85,850,-0.0363913512884926,-0.0204375135488373,-0.0133554944277394,-0.0204580108947469,0.1711279148699425,-0.1146897671648972,9.43973950709676,-0.0216533423459707,0.0221707677124041,0.0054609327907564
86,860,-0.0101391399478067,0.0028737207618346,0.0061746137189855,-0.0101746916322899,0.0041416385358425,-0.1370588737657007,9.600918233059591,-0.0311063894571972,0.0254710578533751,-0.0059627347003133
87,870,-0.0049290047287181,0.0028469224093034,-0.0100879783903498,0.0037645822321806,0.2287464462450197,-0.0640672577350158,9.729350849291956,-0.0719975192244889,0.0127479172058484,0.0342858264823552
88,880,-0.0191665089952544,-0.0094407478363609,-0.0234830708344993,-0.0061803668606722,-0.1300273636626149,-0.0397599520376181,9.612657388271714,-0.0321267538915466,0.0159975853170781,-0.0257161853170545
89,890,-0.0279570715379101,-0.0133839743447559,-0.0231264901120623,0.0076722649259996,0.0897649497435621,-0.2147265674776559,9.671175850786405,-0.0460509254631165,-0.0002822596167824,0.0656816741225678
90,900,-0.0340440813201135,-0.0039846875356687,-0.0108680525444129,-0.0089175623439241,-0.0064476887712906,0.0566672779052808,9.658692385854543,-0.0375024026324938,0.02367342579617,0.0064824095941749
91,910,-0.0214595159281476,-0.0212244006272067,-0.0420871436807377,-0.011280268488563,0.1073280723361729,0.0165345497939903,9.815769809974684,-0.0664566780870127,0.0195690746868004,0.0002629988371638
92,920,-0.0083491519724949,-0.0095241065226125,-0.021958564246967,-0.0295019549562177,-0.0089864331851944,-0.2685876223813432,9.458898453319495,-0.0419733029384545,0.017228205649332,-0.0732106975343765
93,930,-0.0197793063979101,0.0091791348654299,-0.0139830562135669,0.004288450893909,0.3693615440141695,-0.0697688671809505,9.806515184662498,-0.0545654523722998,0.012818049866722,-0.0112920992636665
94,940,-0.0027267722613939,-0.0265266575170058,-0.0098183617800334,-0.0321613249773465,-0.0023724973346029,-0.0171343165248041,9.711386847598472,-0.012221110059904,0.030499473343493,0.0253264399878554
95,950,-0.0144666167932684,0.0048851799287004,-0.0360965655839932,-0.015463123644383,0.1067905846168605,-0.1641608811478665,9.713031024735956,-0.0446073322941357,0.0240384278193057,-0.0061818849837005
96,960,-0.0286135857759539,-0.0065283915907933,-0.023804250532908,-0.0174812663394174,0.0649841697845465,-0.155640247439584,9.424176482372337,-0.0135238075235224,0.0236674916823626,0.0255125908165539
97,970,-0.01879774737951,-0.0223101641239121,-0.0243325567950209,-0.0209262302089287,-0.0059899591890218,-0.008089715338874,9.699194969732927,-0.0033728167697025,0.0081460686283116,0.0489302071060576
98,980,-0.0171249804057713,-0.004951756935568,-0.010270688649416,-0.0076467565472355,0.0887233177280401,-0.063802384116064,9.851291147521827,-0.0193490497941998,0.0265346763125479,-0.0227710128420803
99,990,-0.0262341896360702,-0.0078121926331449,-0.0170836555716224,-0.0193098379929504,0.0500105944154111,-0.0514470796718229,9.890157984910491,-0.038260602406415,0.0125141045407693,0.0166909641158152
100,1000,-0.0078302661729816,-0.0419383078916218,0.0003453099211465,-0.0160966770700573,0.0571149884869886,-0.105301057674257,9.79025803245185,-0.0009026249957271,0.0106334879350206,-0.045252251120712
101,1010,0.0046449732728439,-0.0252234797151263,-0.0266585981094987,-0.0007800616769759,-0.0576646562202139,-0.0393499914817323,9.774364197316512,-0.0280910602837247,0.0100610622988072,-0.0423060074861211
102,1020,-0.0102584706562517,-0.0137192236813698,-0.0099027494753958,0.0189942842418947,0.0361169248619906,-0.1990180073434098,9.622010704563492,-0.0375297290265781,0.0049142705627,-0.0508114839708206
103,1030,-0.0380002405927535,-0.0282707345782466,-0.0449123311689518,-0.0316668469396299,0.1472288546469542,-0.1736396930188217,9.712502603150533,-0.0132545486724962,0.0186378193103602,-0.033691158275814
104,1040,-0.0271374846129877,-0.0096768804796774,-0.0182493328732755,-0.0209145700004646,-0.1846531161891725,-0.1231116471008584,9.83145956928404,-0.0089147173641289,0.0055006741927499,-0.01537058820216
105,1050,-0.019210875706199,-0.0190937537287358,-0.0183274825481628,-0.0235027219478547,-0.0556543844207743,-0.0699255679715096,9.648856776549636,-0.0260961574480319,0.0115963539087992,-0.0434554073193121
106,1060,-0.0178325668071358,-0.0218067746462692,-0.0099505916510773,0.002569986551091,0.0505483163513709,-0.1781938155387541,10.071496164254215,-0.0384000687217523,-0.0055289074075132,0.0326228882187997
107,1070,-0.0252945079938213,-0.0105108843034983,-0.0407436539570752,-0.0117268872715921,-0.0124830078376625,-0.0133208276277684,9.866874044857296,-0.0047284519577854,-0.0019264729732318,0.0110812728811231
108,1080,-0.0230307440378021,-0.0229437872624427,-0.0376059955542326,-0.0136740939593171,-0.1316298327533092,0.0677216830231845,9.67413975302214,-0.0510125493531332,-0.0013144079963671,-0.0125973266774892
109,1090,-0.0201519505213969,-0.03295688426026,-0.0214181272718124,-0.0230282510463544,0.0818336854551676,-0.1195510966342354,9.630767045057691,0.0057410264973726,0.0032099654219133,-0.0125296136675498
110,1100,-0.0005258844643691,-0.0104472682467836,-0.0209351999730852,-0.0315266177614046,-0.1175968029764498,0.0064680658288927,9.69962192292065,-0.0201498777032546,0.0098925547484399,-0.0578832148188174
111,1110,-0.0152899714541651,0.0083636635354452,-0.0039742472048002,-0.032804668018131,0.1746861126135924,-0.1309170861179956,10.12152811135022,0.0265565863098092,0.0163032601890776,-0.0022437197330238
112,1120,-0.0006774481958355,-0.0115906910051038,0.0088750133191897,-0.0234278765002807,-0.1401153007860958,-0.0409239282790114,9.648544812532386,0.0159413786328795,-0.0077181852557357,-0.0492202281116953
113,1130,-0.0139137735209421,-0.0022200446864885,-0.02870784178796,-0.0280827299708688,-0.0847934367461157,-0.081799533216927,9.717997991636064,-0.0097533640269525,0.0032416738229707,0.0040056173973251
114,1140,-0.006549058149935,-0.0200810701696617,-0.0145423292912517,-0.0208860304128678,0.0233925587910141,0.0184102925759408,9.869030828049302,-0.0309785095033964,0.0210830315441746,-0.0043288301862183
115,1150,-0.0030803861475213,-0.015199498990795,-0.0202911053850875,-0.0263298246570952,0.0183478825201312,-0.1425606409823575,9.543686299553832,-0.0033583532604957,-0.0015052904108819,0.0417882911705178
116,1160,-9.689823441781652e-05,-0.0076958678006203,-0.0230754622978254,-0.0023035099190614,0.1229446775771086,-0.0865199278244954,9.74091600084242,0.0005609982994738,0.0009538587439941,-0.0460881979245256
117,1170,-0.0076074683417628,-0.0022852042433535,-0.0070720772477271,0.0155056888492163,-0.0432727147327645,-0.0198619991308131,9.879648651813875,-0.0169565506691679,0.0152885944403682,0.0298693975508695
118,1180,-0.0036827148180529,-0.0071014277265639,-0.0058544410017808,0.0064755392425749,0.0431079825547119,-0.0169201490342435,9.756572823424428,-0.026210638311217,-0.0094742606820898,0.0424522182689042
119,1190,-0.0046495603973116,-0.0065103933444539,-0.0249567412493253,-0.0006183045168254,0.1725356812775773,-0.0473991594780868,10.234891480742668,0.0077281014931833,-0.0047094285179495,-0.0236366225937662
120,1200,0.0150591437934158,0.0080911785309133,0.0033772547636629,-0.0074039931743616,-0.0965469599660915,0.0397798384808923,9.63431516539067,-0.0263410073270472,0.0050867654275036,0.0244136387830967
121,1210,0.0162797246725976,0.0007196558558647,-0.0096530372961518,0.0168956006270185,0.1344633384917631,-0.0920266351547185,9.557892231271625,-0.0177462255247432,-0.0151800665498693,-0.0214260874181096
122,1220,0.0106413904646454,0.0090322326752606,0.0038670622046589,-0.0003045116694052,-0.0972546321257276,-0.0655019624693338,9.67872491817058,-0.0032109246055538,0.0081524418766131,-0.0226863646286081
123,1230,-0.0088908437086556,0.0151542406603623,0.023419483484534,0.0062587251164166,-0.099999842179519,0.0424628474614079,9.772954311488256,-0.0294757875662234,0.0111557638720054,0.0044684578464201
124,1240,0.0017447569281084,-0.0027225323804946,0.0051672259271522,0.0019135856448245,-0.0780936092045409,-0.1173699140125773,9.767202577929442,0.0015440542173588,-0.0129503986932861,-0.0267877979003817
125,1250,0.0222816801050778,0.0281326792860747,0.0023443948040905,0.0238267549803813,0.1436167167368219,0.0782147107170759,9.382051470034904,0.0352001475960541,-0.0135332600977628,-0.0225174906563937
126,1260,0.0277699003848942,0.0003478360230449,0.0250347025506844,0.0159367337488629,0.0566476586983352,-0.1991338820414407,9.690311155955428,0.0426090598287176,-0.0011733554869534,-0.0270690584341441
127,1270,-0.0036144644287085,0.0045458215984421,0.0275154277267811,0.014639487989737,0.0235208344133127,-0.0388231838875408,10.189402721935837,-0.0020314622611099,-0.0034485666825865,-0.0245929139810523
128,1280,0.0300045227210902,0.0030737227255643,0.0132324371850759,0.0215847145595052,0.0103863246871266,0.150254122706908,10.254431041849804,0.0250774821823343,-0.0133406887477418,0.047068364714913
129,1290,0.0330060896657624,0.0196907814196163,0.0225858446375362,0.0269365228174049,-0.0706387805225272,0.0860547087977051,10.292412765353829,0.0465953376212962,-0.0131108721683678,0.0012843959542126
130,1300,0.0047680141583606,0.0119449225722127,0.010720635958889,0.0146559926181803,0.0743642306778045,0.0952493540700072,10.069425456676084,-0.0209367594000066,0.0049555754704706,-0.0221423017198746
131,1310,-0.0001975947308735,-0.0050363844197425,0.029042890879908,-0.0061802304102326,-0.0233891318434066,-0.0709575974485118,10.09384523007227,0.0037627711988398,-0.0143640892935408,0.0610649294443009
132,1320,0.0135694540202098,0.0156632293951754,0.0184738987452482,-0.0040693007542319,-0.0010117200706659,0.0772724216232428,9.872124772945432,0.0180445177522525,0.0064404766306288,-0.0261802332488514
133,1330,0.0185694695586067,0.0323669558699008,0.0260929623197561,0.0298475654457361,-0.0776539248859648,-0.1155576444777233,10.08349435775005,0.033933151184254,-0.0311197326327135,-0.0236246220095652
134,1340,0.0346301168174121,0.0123531843425305,0.0142606309953495,0.0036028650684638,-0.0188366476710454,0.0667066708097129,9.656942984871067,0.0347635106991064,0.0054130764300362,0.0050687324657718
135,1350,0.0116917737410726,0.0023517838024451,0.0261582051691282,0.0171497083323913,0.1152093390185722,0.1826836006472621,9.83663238020234,-0.0223538203070546,-0.0007050286679769,0.0123796862056407
136,1360,0.0151016542246462,0.0162205494314736,0.0349979163345179,0.0140869574059321,0.0345966719793511,0.0421956286547747,9.968086989575252,-0.0142848986029423,-0.0060425848089041,0.0455322540068617
137,1370,0.0034099247209104,-0.0028351602529265,0.0209455933119915,0.0055845440643859,-0.1371386978544367,0.0558747537268033,10.05741777608602,-0.0012766882180951,0.0008116422264537,0.0518521601285553
138,1380,0.0386055175272021,-0.0026112711695049,0.030314373201148,0.0262996383517522,0.0327504459006247,0.1090927379609931,9.932960767475684,0.020283721489115,-0.0243985586537388,-0.0285366829023192
139,1390,0.0131816580047579,0.0066121327232815,0.0396423220199135,0.0220518912895728,-0.0019335114619415,0.3003644785589983,9.840312973251145,0.0209252657517589,0.0063058471463469,0.0253070909054861
140,1400,0.0134451989792377,0.0058933506168767,0.0394640383977941,0.0262060353433336,-0.0095178610507088,0.0379793146408168,9.927861596534408,0.0041127190270064,-0.0184583613728472,0.026426516625958
141,1410,0.0214422690323293,0.0439669744320951,0.0479935235276473,0.0308864454193347,-0.0332318643056321,0.1611122568625924,10.249016715624585,0.0253815313554648,-0.0106338966488094,0.0064532687301463
142,1420,0.0310866034054282,-0.0055414537987938,0.0201282987386001,0.0137078068172217,0.0721010475585657,-0.160082316406547,9.735185200264258,0.0213144842239719,-0.0071733408764618,0.0437093191732268
143,1430,0.0257590742147143,0.026073675211867,0.0158608263947869,0.0311315598132676,-0.1387237099123342,-0.0619090783927303,9.875263851664991,0.0472616953150995,-0.0069530311336012,0.016390838153321
144,1440,0.017548982775604,0.0218933122673134,0.0263251469584029,-0.0043437710873519,0.086338932714503,0.1901337847929593,10.052214531686182,0.0279431639843273,-0.016498280266667,-0.0001462348826612
145,1450,0.0253153205354994,0.0112946866465017,0.0024769615149292,0.0273962451809783,-0.1051217975565364,0.0833889202296484,10.215237773949676,0.0525137651554801,-0.0188093094686222,0.0016813898955425
146,1460,0.0182417898219867,0.0291804028418888,0.0258341324502517,0.0121408416828738,-0.0112362838429815,0.0088218040582006,9.985509729483873,0.0332942089352548,-0.0133652501171218,0.0317797913043612
147,1470,0.0157945176515167,0.0092682417336436,0.0276282690609515,0.0170507951764043,-0.034424605488978,0.1981595262992,9.945523173468208,0.052180607415912,-0.0240656415637982,0.027453434457777
148,1480,0.0087968525881313,0.023044562773891,0.0132453470033296,0.0028176259524031,-0.1594699061298529,0.0486487693381504,10.015597117379,0.0164798853666593,0.0015558896919689,-0.0024228132957311
149,1490,0.0064559641716299,0.0001278457258878,0.0079217896971484,0.0354111501893968,-0.1687189447997482,0.1556451869332796,10.13387292744144,0.0226941369526283,-0.0023344632672266,0.0010966534241844
150,1500,0.0205044955880377,0.0309600481177568,0.0287075789556354,0.0197318141243047,-0.1091584595458412,0.0583222432138236,10.017478013456358,0.0257280104909089,-0.01588767372989,0.0490529657233908
151,1510,-0.000389871890864,-0.0136937839990528,0.0022194644527869,0.0111315934339108,0.0407210768509033,0.2676667184710405,10.270714982761774,0.0644916636893179,-0.0186625941386205,0.0050148349962512
152,1520,0.0339206853625209,0.0085568523378079,0.0006311209480934,-0.0079844186285564,-0.102561125315096,0.1720710316458037,9.839007902531144,0.0094127064627441,-0.0161585459757576,0.0497421725517457
153,1530,0.0141452057485201,0.0007259924733974,0.0089867191804526,0.0081188210153301,-0.2151533426593607,0.1378840170080316,10.162573175024992,-0.0012376677726258,-0.0036918341014925,0.0576153400788296
154,1540,0.0254181003745922,0.008033613023624,0.0222687952110024,-0.0028859597009682,-0.2334603147017767,0.1225390331769716,9.837480679684546,0.0389320800521258,-0.0179799381890474,0.010441844829506
155,1550,0.0159946931086166,0.0032334000864826,0.0150689627255773,0.0149480617925971,-0.015810475361903,0.2248775889162331,10.125830206612155,-0.0076496414968139,-0.0153576981480088,0.0214503375303763
156,1560,0.029823714363498,0.0066077397546608,0.0127938469179989,-0.0011777918306734,-0.2000650870317729,0.1783170586658089,9.815562266850174,0.0765519963974955,-0.0260271851887352,-0.0043692094429101
157,1570,0.0032621074832352,0.0006777670286873,-0.0019497390039481,-0.0069287482368467,-0.2791335949937606,-0.0425864388304645,10.348044911415691,0.0379446506365547,0.0044377856882049,0.0235408125641943
158,1580,0.0057348542494395,-0.0046268679631591,0.0200764396619776,-0.0010281289073229,-0.1153557696862546,0.1080616421875794,9.793053158196772,0.0523542509828579,-0.0163936681347505,0.0263932817756373
159,1590,0.0120954717819373,0.0029262485790667,0.0027934464906082,-0.0120590932818496,-0.071046955181514,0.0067135198728234,10.22933454299109,0.014912259423566,-0.0398208846786188,-0.0040129174224693
160,1600,0.013568926675292,-0.006871095096648,0.0046927633600254,-0.0005623772217323,-0.2570266317902415,0.1051114705089763,10.182018630221572,0.0396619642333791,-0.0254780110213382,-0.0067106059786354
161,1610,0.0085436555242951,0.016872719989505,0.0249424176460906,0.0245447176143381,0.0270702348656846,0.1415168172903877,9.882578000046609,0.0498851212146521,-0.0258713012134409,0.0819048438071316
162,1620,0.0041285886083842,0.0027155366767391,-0.0039225323075538,-0.0094226632402365,-0.0256919989873669,0.268446706271063,10.152764933856544,0.0737913114956669,-0.0167096704396377,0.0010533967862072
163,1630,0.0199542755513724,-0.006783753259704,0.0111319647780682,0.009217519092615,-0.2068381899315818,-0.0458744422154024,10.411192364175571,0.0934562799537802,-0.0128700635336278,0.0641915825979208
164,1640,0.0147741942668677,0.0074041223261343,0.0256459497605888,-0.0086536328371268,-0.019645759550761,0.006588071107226,9.776470530111348,0.0566348410386403,0.0019110710281878,0.0877055299341859
165,1650,0.0235441496643609,0.0105193378926387,0.0192810697041801,-0.0043456772060581,0.0709977904177104,-0.0145886834656724,9.823387167996518,0.0136408480806993,-0.0153428256656572,0.0581460351326217
166,1660,-0.00044303135259,0.0102410569721847,0.0150217529843524,0.0122032688375171,-0.0161990980492892,0.0476156592368418,10.052214651385077,0.0645341927700076,-0.0037651826518704,0.0763356010564389
167,1670,0.0149692909212581,0.0170604297598653,0.0098429849316544,0.0213835433993566,-0.2215660929729832,0.2170462555761057,10.324968832122105,0.0865739277361619,-0.0027488305519296,0.0814597534229491
168,1680,0.030500051552982,0.0034758841830651,0.0264057185617769,0.0070171696638527,-0.1405810322165659,0.0430338538950099,9.938043947835276,0.0516629709678739,-0.0115913284355215,-0.0070088283716099
169,1690,0.0342933514562029,0.0240334005415504,0.0125726483652426,0.0342919650218259,-0.0121417909981763,0.0514798865553531,10.436128727099106,0.0691303169068903,-0.0227096639752946,0.0361211549316354
170,1700,0.0262268637932682,0.004185717816721,0.0204087965560628,0.0071273137611021,-0.1206805132745068,0.18479698554189,9.91242435386211,0.0352643957233048,-0.027095685610052,0.0837454910578478
171,1710,0.0410789689454086,0.0230145520800471,0.031614650210874,0.0231824574713136,-0.2528302795812415,-0.0345140185372055,9.754855829802688,0.0804807720072738,-0.0403017802812861,0.0334681869136081
172,1720,0.0221052074333755,0.0152986473614769,0.035797026530827,0.0029864257433305,-0.1063371566860142,0.1262186285517165,10.400949085983504,0.0753770759511428,-0.0274397362719467,0.027331093988902
173,1730,0.0222058820339235,0.0153923807051687,0.0270878726952659,0.0137743456466712,-0.0125730088660216,0.3069282329017923,10.12331577619658,0.0720370498262913,-0.0229838389304449,0.0883599554461195
174,1740,0.0437099707048518,0.0237341639795203,0.0046399288024838,0.005208019875367,-0.3086481274987673,-0.0487758353460834,9.915562850484598,0.076853795460422,-0.0201956042259652,0.0776295324360288
175,1750,0.0507051935510673,0.0400853784864698,0.0434051546578725,0.040744311976061,-0.3424245355886652,0.045723434026711,10.399181641949983,0.0352149190865973,-0.0118166167517567,0.0375071495528307
176,1760,0.0314155862962608,0.0017375710285184,0.0230853241275477,0.0127564517687042,-0.2104408130429791,0.136533073437271,10.15592590166611,0.0223914130287971,-0.0113568439204593,0.0474781896639612
177,1770,0.0389031055890012,0.0190492718701306,0.0219257392108885,0.0282548863033299,-0.2767675342408918,0.0523315030710482,10.149240359742974,0.0830899944733125,-0.0221339881003702,0.0455002748363905
178,1780,0.0370799552275904,0.0057300347977706,0.0495083130648992,0.0158193253684582,-0.2183056824125396,0.1736827539837944,10.152146077178648,0.076307165663538,-0.0262788546895806,0.0908439438988779
179,1790,0.0474347643229399,0.0292136909419018,0.0384601051029577,0.0204938755823756,-0.2023452438476857,0.1195191839761279,10.567562297661382,0.0618524129270121,-0.0196934592016336,0.0392192791413953
180,1800,0.0213939228172772,0.0129363487649681,0.0261383899510086,0.0240422457861889,-0.2542424395298207,0.2337235317463223,10.1222733816264,0.0802477017193955,-0.0300850189343877,0.1115411070314339
181,1810,0.0364144832962647,0.000848700286725,0.0412877971700508,0.0204896123591751,-0.31016637405815,0.0652508790293921,10.118622415122903,0.0813188727673824,-0.0136210816716838,0.0622590310423567
182,1820,0.0356520882044171,0.0170864040826917,0.0342326587818259,0.0168667136439519,-0.2430490875451277,0.2892758067775164,10.45063619730555,0.0466715837354268,-0.0201587321574474,0.1246238686582328
183,1830,0.0404959395921539,0.0321285184192418,0.0364049432886132,0.020310102129376,-0.0063640393551104,0.1924700678659127,10.281598442338838,0.0880731590849191,-0.034155699750199,-0.0082628250440911
184,1840,0.0408742555102791,0.0019101380191158,0.0324188495774643,0.0263122806858203,-0.112538843635111,0.358470371281403,10.18071815251746,0.0787683075194032,-0.0139380156415551,0.0716185694264214
185,1850,0.0373282740855715,0.0046325927172549,0.0450375652194283,0.0315367404344439,-0.2416015609444785,0.2821124251747705,10.374285494358013,0.0808485157946483,-0.0327067123350316,0.049177972105503
186,1860,0.0318708177904836,0.0154738756415808,0.0397457031642196,0.0183753974883308,-0.169256087407593,0.1553078744972404,9.88422678404901,0.0720008190541228,-0.03603629951879,0.0742618592027789
187,1870,0.044334729569578,0.0191627534041797,0.0146335041645583,0.0201667816854769,-0.2015091260620426,0.1612198171583642,10.195656614329843,0.0628231352391472,-0.028741455772128,0.0807435455100711
188,1880,0.0266809479782396,0.0174782871916987,0.0492703490823845,0.0248424274216192,-0.253528125401946,0.2751475282959867,10.173528022562568,0.0307154800846068,-0.018630596506284,0.0723939904259665
189,1890,0.0439347911656363,0.0101740730125437,0.038835150055915,0.0146387553054386,-0.2148252239447322,0.4162046313357395,10.384292520224928,0.0695436832496515,-0.0340134916974481,0.0907708794027427
190,1900,0.0452933354457827,0.024611729418912,0.0336812641636536,0.0291692226154146,0.0074574708382511,0.2398025393652947,10.33227355417674,0.0928745429092164,-0.0347357273820509,0.0595184972925065
191,1910,0.0296340026252904,-0.0021885566523382,0.0385059395873615,-0.0123440873054107,-0.2477629665519822,0.1917476382166986,10.104190492703266,0.0466586119708664,-0.0479767832801199,0.0424754314559453
192,1920,0.0488585032340767,0.0053404949354414,0.0287731997356253,0.0293099735112096,-0.3920192565434498,0.0948656135857677,10.288009060953184,0.0982586458406665,-0.0257221889874702,0.0779024366136111
193,1930,0.0298789264471418,-0.0054007806072044,0.0150274815522936,-0.0060075830206054,-0.1598994796842776,0.0181925119757498,10.357323487552176,0.0775092700449569,-0.0283372540873724,0.0483950730493138
194,1940,0.0333582875296353,0.0022128093350193,0.0449001899358883,0.0173850570857438,-0.3029780732978103,0.029323100901838,9.892496389129638,0.0814221804351581,-0.0309155297997811,0.0661318208688829
195,1950,0.0240030759342044,-0.0110741600659668,0.0190229903384933,0.0033970916583628,-0.1639492344374622,0.1610463278638155,10.37839886951551,0.097897768305511,-0.0407644589315528,0.0432546912807279
196,1960,0.0330703777865033,0.0017419804654716,0.0075787294103307,0.0035260537485657,-0.1423891616349538,0.3180722226446494,10.370330146978231,0.1212435823035782,-0.015722312278068,0.0615428395219058
197,1970,0.0225507769897858,0.0024136501807372,0.0382684692266907,0.0104606394991754,-0.1656088420239946,0.2041856590387222,9.954020819393124,0.0773950053778109,-0.0376152335415966,0.0549011382090351
198,1980,0.0145512452270893,0.02568407713892,0.0101764484713252,-0.0131729183851103,-0.202911929937047,0.1881448011425293,10.337700877999694,0.0897731152253448,-0.0324908894639628,0.0692193099044818
199,1990,0.0285990226195011,-0.0078087353145561,0.033721323712358,-0.0126942814012943,-0.220978322962315,0.188906921440449,10.254950568148956,0.1032130944999929,-0.0402495013579464,0.0468804616482871
200,2000,0.0173815311967283,-0.0060750928219977,0.0204631650400557,0.0075169947308951,-0.1780058987130628,0.2122913259706147,10.0225048055976,0.0827782386803104,-0.0410744502696314,0.0995124326160328
201,2010,0.0315483429184584,-0.0090153383919422,0.0200101228684303,-0.0048295634012218,-0.147542499675906,0.2975094543557585,10.358310288175511,0.054046090730974,-0.0341687777745556,0.0704411497457023
202,2020,0.0243821192214331,-0.0012569866654867,0.0149424140432734,-0.0016188634098874,-0.2019218224968322,0.279554203369326,10.372657550290365,0.1112050011189899,-0.0282545580883118,0.0854872288216787
203,2030,0.0168473233211398,-0.0187235443463076,0.0205208343403222,-0.0205625392926269,-0.2696257443804994,0.2507283509655812,10.044557659817045,0.0678425427768872,-0.0492428943160136,0.0632981014391241
204,2040,0.0143206931266473,-0.0211285343215214,0.0118213743194516,-0.0082191738243624,-0.1771064141624113,0.1699088865544634,10.16287876945859,0.0932053231830717,-0.0152147542817593,0.0927399162962455
205,2050,0.0137406184448534,-0.0073408125551502,-0.005790188024858,-0.0161620819814564,-0.1516648837113403,0.2937659976023259,10.349486042959946,0.0844092733021165,-0.0598595987351835,0.0826690967401124
206,2060,0.0046703504957187,-0.0066496633903117,0.003433058607355,-0.0135062212113959,-0.2107024406869469,0.4650427181013347,9.713473053308771,0.092851882672573,-0.0153163183188905,0.1297092204486526
207,2070,0.0033896210724933,-0.010772839510391,-0.0032461644660564,-0.0387082002555643,-0.2276999747479107,0.1678080588705485,10.033437253840846,0.0846942638888653,-0.0419235543889325,0.0712582654489893
208,2080,0.0086820692604955,-0.0156487490723108,0.0115944194373864,-0.0064533679096254,-0.0435244715915247,0.1287581885026399,10.148673528157776,0.0718910033954073,-0.0444669239390407,0.07507401137765
209,2090,0.024850821480454,-0.0072494392283685,0.0095658125068566,-0.0150341713759367,-0.1466203096262544,0.3586298717121762,10.371934059563433,0.0774757678907515,-0.0212087512300182,0.0583854678999731
210,2100,-0.0022391643478644,-0.0273882575746825,0.0192585148666988,-0.0216682801097907,-0.1948125592009532,0.1297342206183322,10.284560977154662,0.0717459606583002,-0.0464406098555904,0.1042404916780659
211,2110,0.0048757694700599,-0.0294704811772115,0.0084683162393507,-0.0207438907643494,-0.3645090203684574,0.2484082443824767,9.694795910290615,0.0740434016712534,-0.0369235905455,0.032119617145114
212,2120,0.0108060131368547,-0.018617849218173,-0.008152397103942,-0.0298740244904367,-0.0670094500868461,0.3356127390825979,9.920894551398511,0.1209058233457341,-0.0341461033201182,0.1098086877243395
213,2130,0.0075192885872044,-0.0115496706030272,0.0198599956622451,-0.0085379041990119,-0.2649096884624893,0.3152864390398928,10.019076700143843,0.1003230266332913,-0.0341683033192175,0.1066146081924059
214,2140,0.0017074777233474,-0.0393579896133298,0.0065021626081185,-0.0134836159003726,-0.2129553004261952,0.2168627581467943,9.963193592486776,0.1508311678851815,-0.0443782943337968,0.0286867442146456
215,2150,0.0117176973707547,-0.0156139885872494,0.0180905988533645,-0.021259969075577,-0.1535832460721997,0.2861083465008023,10.187311581770404,0.0866716012364438,-0.0301527366183965,0.0571276674460371
216,2160,-0.0074663187833771,-0.0425611866945819,0.0112131137912104,-0.0203277023010572,-0.2921598453702798,0.2690210184781348,10.195909338982116,0.0664069410293886,-0.0345324933026802,0.0437152560499804
217,2170,0.0078598683170679,-0.0210803118329735,0.0106427009812562,-0.0043891944646559,-0.2796202109957296,0.4889101934597886,10.417130571720094,0.098031825185074,-0.0557374571267612,0.0627629972833417
218,2180,0.0193051429723227,-0.0198897587080755,0.004371651623759,-0.0097416553979993,-0.2546979269468828,0.34366358565634,10.5927409322001,0.1220805988848221,-0.0314311942805481,0.1052125049171585
219,2190,0.024832226473601,-0.0357943767919445,0.0163446097361306,-0.0124015813487259,-0.2119256883882949,0.3234500512504176,10.20590861715254,0.1052523953712654,-0.0432784514277823,0.0941114548504013
220,2200,0.0104212537477393,-0.0363434898160535,0.0171676806703422,-0.011514381346082,-0.1406307879171926,0.3263804769867073,10.249830821713305,0.110339170060884,-0.0344911708920299,0.0622990990421053
221,2210,0.0099575915033718,-0.0237088450780376,0.0190306339661652,-0.0265710917686131,-0.2575216461164546,0.2880308234887669,10.526292706561271,0.0783397817716312,-0.04065128293274,0.1123070715687505
222,2220,0.0201417530667917,-0.0160931359548574,-0.0027267745500941,-0.0003399406162983,-0.4208081167821081,0.3532868197771631,10.478882147531936,0.0889704392403954,-0.0421616772610225,0.0975556881426453
223,2230,0.0295928489868371,-0.02797514335595,0.0163569755805041,-0.018272896019502,-0.2254840949270934,0.4251039625925091,10.122464332504368,0.0860148797269325,-0.0367730969506205,0.1241412822250074
224,2240,0.0162940137142039,-0.0105253603659286,0.0037802832826579,-0.0153327235144505,-0.4029449781133226,0.3456736141315453,10.656508959868818,0.1204380310708422,-0.0601521837181987,0.0993834938430746
225,2250,0.0198356008550769,-0.0299211229877919,-0.0037023223997107,-0.0433177767413841,-0.330931630161598,0.3647495106480424,10.343810592969248,0.0813419615004785,-0.0388215463231548,0.100656259381728
226,2260,0.0219569582429885,-0.0113623618518841,0.0165277199905225,-0.0257935663393435,-0.2679530160487548,0.5139070952590085,10.132261265894146,0.0884141336889846,-0.0415480128821371,0.069557374955035
227,2270,0.0193240561426129,-0.0105364064787924,0.0165141863258636,-0.0140420827775664,-0.1722914625902923,0.2578311736661203,10.567979880800795,0.0683448120676233,-0.0452079333625812,0.1088428642977858
228,2280,0.0287656399744777,-0.0222422501115134,0.0201433554138349,-0.0039832603985013,-0.3017711905313519,0.3648764710707902,10.47526211695806,0.0903232604072721,-0.0477542822784152,0.0435079850538849
229,2290,0.032872232030881,-0.0223123993220868,0.0280601823977023,-0.0022296432879511,-0.2740297267372633,0.2415182956708303,10.346319057959008,0.1116798345582537,-0.0525320429459663,0.063359070867262
230,2300,0.0194025268286241,-0.0366066004082174,0.0169126171833891,-0.0175288592463159,-0.3730777717890908,0.222562339479629,10.05019994331096,0.1081187884124251,-0.0402023189697785,0.0867494098354808
231,2310,0.0505420772303426,-0.0208498083007847,0.0432486477510457,-0.0134367853182754,-0.2143797051054989,0.4055477837102586,10.25421276501728,0.0821348076570277,-0.0342896637019121,0.0840953876742784
232,2320,0.0464609267282191,-0.0142255564442772,0.0229639950685366,-0.0090683357280694,-0.1762471730545539,0.0680823492715959,10.40665984479111,0.0683414023226512,-0.0417064545172443,0.0834004076259916
233,2330,0.025113282917552,-0.0005318884130433,0.0246014988252367,-0.0234569331206076,-0.2854129303706578,0.1422543665332085,10.0665230267042,0.067728854764121,-0.0475971683418226,0.1135692182525728
234,2340,0.0321509947624659,-0.0118400350568465,0.024618359221899,-0.0153215855822538,-0.3869062406906695,0.4823785597923671,10.211600576568127,0.097218520224777,-0.0408752641222559,0.0551636631335056
235,2350,0.0149503571016082,-0.0148316353112431,0.0264990162074341,-0.0129497835900391,-0.3646644971780592,0.1962404384418301,10.326615092392368,0.0758330532302033,-0.0371030250752239,0.1394020552790877
236,2360,0.0056075963063027,-0.0272622812720676,0.0103167954689712,-0.01836000690528,-0.1983413365318648,0.2137513417393562,10.165981424527397,0.0970990346352024,-0.0652411802122603,0.085186251035147
237,2370,0.0207708320443133,-0.0301936130927893,0.0248970025266343,-0.0228089203546402,-0.1717632397973976,0.2843677929165472,10.345239876334546,0.0821147329788714,-0.0572316157283702,0.0964263438098631
238,2380,0.01879302360163,-0.0183954971826074,0.0370051758057679,-0.0103341747089319,-0.2795658783918902,0.3087093521593195,10.297059165257751,0.0871096095112882,-0.051998143619649,0.1061264761463415
239,2390,0.0348538506658554,-0.0003531762080611,0.0098007044349383,-0.0171837910479335,-0.2638220694057128,0.5013792288544998,10.426805966064784,0.0982595104214065,-0.0354407030685543,0.0806503564119483
240,2400,0.0191838948520743,-0.0145117073215225,0.0217023126923547,-0.0183881076240816,-0.3401859208741294,0.1360779358873829,10.32648889704858,0.111385731170783,-0.0502508891395116,0.1111972934033612
241,2410,0.001131014344202,-0.0307158400639474,-0.0021459679000472,-0.0130504586989106,-0.029838478751097,0.4186446981089521,10.26386706660926,0.096922322588283,-0.0259194936017474,0.0467892891836019
242,2420,0.0096233595463169,-0.020710861980939,0.0349345324065038,-0.0365544554029518,-0.1477202627575883,0.3673273583520509,10.4309321857691,0.0785211494456277,-0.0501714690721705,0.1226296708807636
243,2430,0.0268022053106359,-0.0266803289788831,9.674499267666586e-05,0.00477672797699,-0.4788245350886101,0.4071218284309753,10.338555845786352,0.1092015163291893,-0.0428969637904552,0.0874531746090541
244,2440,0.0248237177237394,-0.0261561760436032,-0.0020389923689247,-0.0285032085238955,-0.2404651179983322,0.3868874268356083,10.35285292216195,0.0953711671768816,-0.0499414447134765,0.1157968983778963
245,2450,0.008794986640441,-0.0260480192305305,0.0176083095632455,-0.0370110442270311,-0.2560880212373972,0.3324799029814685,10.548465349507552,0.1013137260644414,-0.0380889246173358,0.1380866359419454
246,2460,0.0106738043812993,-0.0213255700666762,-0.0035730028743482,-0.0220218818455196,-0.1336643408655977,0.2593702743933362,10.701083450364605,0.0964494557759145,-0.0512413344676318,0.0853281288426712
247,2470,0.0052572349998866,-0.0609429409946049,0.0115817283750355,-0.0407615712982056,-0.1738727921118451,0.2870019446103368,10.255037623481876,0.0582882283672544,-0.0452955206461294,0.0994469127733778
248,2480,0.0012450168732868,-0.0426027438748513,0.002312934210173,-0.0512192662189212,-0.2668096699178997,0.2327152967438664,10.339397272627709,0.1102018874116575,-0.0482783341316374,0.1519850158511699
249,2490,0.0044538407485384,-0.0374758004553817,0.0045620239143747,-0.0397484992688122,-0.2995607554336247,0.1856834597722628,10.445663069030642,0.0907508386944648,-0.0350854866766488,0.1214026519692625
250,2500,0.0082270819540739,-0.0315032476587647,-0.0076344211796287,-0.044560489970911,-0.37214846119301,0.2765546372033365,10.378736120140324,0.060004881283083,-0.0290785122235392,0.1152115868836662
251,2510,0.0080175275504824,-0.0350511635880132,0.0008739934179042,-0.0237412940686369,-0.2539453066404049,0.4307768346437788,9.906310945167236,0.1052051458326552,-0.0607549562639,0.1522416438333921
252,2520,0.003729882548039,-0.0655146771526127,0.0072360846702044,-0.0439082534060681,-0.5019875860729907,0.3776957964799763,10.099517927013077,0.091923786794507,-0.0573256060554893,0.135636278618376
253,2530,0.0072494469757783,-0.0294986697744285,0.005726117747711,-0.0335659521184853,-0.2413029247709918,0.580063658381252,10.52287924016558,0.1335748410216883,-0.0437413021298803,0.0654117287711454
254,2540,0.0088861504479864,-0.0550876912224158,-0.002644512357935,-0.0441948344485159,-0.3544154071061219,0.1916862801825333,10.228194024470046,0.0953769302818412,-0.0513235680393197,0.0848484702906406
255,2550,-0.0027201287678933,-0.0331164113219304,0.0095576420996832,-0.0277846608199567,-0.3346834600862627,0.4236808463013916,10.202779359120042,0.0980563459620932,-0.0373684449627411,0.0886268155791565
256,2560,-0.0141044345626025,-0.0441953715942645,-0.0149865769625621,-0.0349202325554015,-0.1073881455812036,0.5849757144399677,10.20846382682648,0.1072598122704266,-0.046557560825374,0.1204709345579307
257,2570,-0.0111481747143184,-0.0364575297232269,0.0028459742016081,-0.0567630466166088,-0.4114550603036879,0.1560703022729756,10.395362255722,0.1344703244855889,-0.0413983019589281,0.1278747727979385
258,2580,-0.0095104885759753,-0.0490561775780007,-0.0048406671918145,-0.051166562563509,-0.3934155537356332,0.4416337170591548,10.384263840258765,0.087698398200832,-0.064179151079961,0.076762423141252
259,2590,-0.010931274531482,-0.0421016512412448,-0.0180123523716881,-0.0534379910073015,-0.4083148763153114,0.422594753628734,10.201227901133144,0.0729953008329255,-0.0359824204243069,0.1324431424259975
260,2600,-0.0075164350310552,-0.0475126597696398,-0.0034354024182444,-0.0509198745593152,-0.2390172352412932,0.5377892136218413,10.190161853643566,0.1189344487871069,-0.0376983700590686,0.109696033806835
261,2610,0.0153962763564019,-0.0495072651247259,-0.0065192183916154,-0.0369247888930117,-0.4086713125665894,0.2749713504532425,10.409705109145053,0.1051997718908932,-0.0607235205517974,0.0655652412057377
262,2620,-0.0215753136870848,-0.05999854315602,0.0043894754754369,-0.0470513988388723,-0.2262093017069769,0.3606714057863558,10.164278041607709,0.1020961281453468,-0.0505859957935112,0.1092171157586742
263,2630,-0.0145402099380282,-0.0538069542982291,-0.009036482324634,-0.0408583319194927,-0.3270404004326876,0.4070210953222279,10.054190479665143,0.1042096512219237,-0.0571962042775974,0.1774297033114261
264,2640,-0.0096697629624027,-0.0637675018300803,-0.0134875053525645,-0.0669517202465623,-0.3460715703828532,0.2603926730315356,10.200632126949102,0.0953030913655548,-0.028874068020953,0.1086551595744768
265,2650,-0.0006144785877719,-0.0551496892656749,-0.0083126097242204,-0.0387683570428554,-0.1592297079795821,0.4781139991806504,10.209215180986684,0.0928277931483502,-0.0371263857180354,0.0954380536894875
266,2660,-0.0185463057073415,-0.0593514716598561,-0.0180653282662984,-0.0534856379334971,-0.4328813727277435,0.4409096663729251,10.136396627499868,0.0888706847624405,-0.0528598189669074,0.1003789022702671
267,2670,-0.0130905021802134,-0.0424916631646467,-0.0263403961003965,-0.0388199365223946,-0.3517298747810788,0.2925732206516978,10.49370713394232,0.0979934423328864,-0.0406097304766244,0.1429845906283793
268,2680,0.0111390219301652,-0.0691823312466661,-0.0005919967049756,-0.0367828704217113,-0.3277586731947331,0.4318395586076607,10.369067864188414,0.096330930059381,-0.0485940013382695,0.1331076001853847
269,2690,-0.0070232633659301,-0.0397481147789559,0.0067624245926553,-0.0387867473921537,-0.3489008373164608,0.3519389425252751,10.268076485085974,0.0984589091964691,-0.0626866824005907,0.0968553282353918
270,2700,0.015779712066265,-0.0304147765211751,0.0057261599659561,-0.0264471576700824,-0.3642628323362644,0.427477988674301,10.347174633875571,0.0839340809542193,-0.0570682071825654,0.0511379495715364
271,2710,-0.0009976993288973,-0.0480920286756701,0.0150740770760097,-0.0192762909715814,-0.4695287624362618,0.3453637649610589,10.307368753485544,0.0791597629115512,-0.0375224009985369,0.0950327538514119
272,2720,-0.0040723558645395,-0.0424373489399383,0.0182035207732101,-0.0140447131254198,-0.3818492355099872,0.4292745896459708,10.368940089656482,0.0768517520192273,-0.0447829559073819,0.1884129326791513
273,2730,0.0207764903278091,-0.0517812071061901,0.0075683850284891,-0.0351662024550475,-0.5060470557374337,0.2690880850291263,10.024591012207294,0.0799387101309792,-0.054034183516953,0.09041923930561
274,2740,0.0133255641269185,-0.0351265174350117,-0.0027385634278688,-0.0370939488057972,-0.2925443256250534,0.3521737676321875,10.456357640367472,0.1472165123559184,-0.057920839132512,0.1279847939790983
275,2750,0.0022231258029058,-0.0430054483399598,-0.0219864747698624,-0.0400344080824775,-0.4363830914071401,0.3113444911004223,10.382641872916013,0.1121119546840385,-0.0540715197418272,0.0885323032325051
276,2760,0.0121336086923298,-0.0648168277992225,-0.0149436595166434,-0.0296199339015123,-0.2698241439951689,0.3751521435719538,10.336160326057186,0.106362324630868,-0.0480668657136866,0.1414992606921359
277,2770,0.0246746754564647,-0.0573553174303808,0.0205692949810913,-0.0367203951791812,-0.3600396223534278,0.3419545948326117,10.347401069412246,0.0757543928082321,-0.0523494519332802,0.1887610373952385
278,2780,0.0117556070470385,-0.0344109285963093,-0.0141981394918177,-0.0308017024631482,-0.1247163408442827,0.4543506300772701,10.753871390692764,0.1202600891504191,-0.0526459731071441,0.1547556197053498
279,2790,0.0082807482545113,-0.0336875126402832,0.0109465432073051,-0.0310519857057354,-0.2779919625227658,0.2897141519322067,10.282387792305585,0.0750986240303104,-0.0575690227684195,0.1370934991388296
280,2800,0.0139233279510842,-0.0307929156963442,-0.0086434845669517,-0.0243484139777969,-0.3924123544932613,0.315630366578847,10.380165276856824,0.1163444579525895,-0.0476196386417717,0.11019117099846
281,2810,0.0046707695589275,-0.0378465717347044,0.0063427308288396,-0.0465465407105937,-0.1901947369646869,0.4919111642638232,10.027931566313256,0.1088469449133409,-0.0344121134751504,0.1370323932776924
282,2820,0.003950691871314,-0.0264073416666318,0.0123201159972145,-0.0048557544379508,-0.2928943853850094,0.5901933253918623,10.13586401179204,0.0602092255062674,-0.0538348395362518,0.0998671779111833
283,2830,0.0269069777058854,-0.0355965493491529,0.0206743451078327,-0.0267894393269357,-0.4081957028506042,0.4334022339515574,10.52202093858633,0.0780803441415573,-0.0636875186276382,0.162717186863495
284,2840,0.008479135148201,-0.0406508156795603,0.0148530225778118,-0.0433938280505003,-0.2908178696818265,0.4484200958135749,10.337260262462522,0.072581368414284,-0.0394191212217059,0.1835137049006221
285,2850,0.0393941038538173,-0.0302183695828445,0.0059247372890491,-0.0146210165238917,-0.3968555936466175,0.3482084280498109,10.056546483267256,0.1060120476723746,-0.0444301163899548,0.153826466923265
286,2860,0.0110745143396311,-0.0209742788486499,0.0050048258323234,-0.0351893382350886,-0.4143819235397387,0.6619060343573973,10.500400748644894,0.0905976932680657,-0.0304133367075762,0.0968158362145782
287,2870,0.0076466035525638,-0.0500696732433165,0.0221582934600368,-0.0566465972090262,-0.1667314100428429,0.4925406650852634,10.188611618842277,0.0958117632135781,-0.0433026348022393,0.1507139843325844
288,2880,0.0298826980068973,-0.0516559954883273,0.0094976929008234,-0.0199337316727739,-0.374846294031721,0.408093919528367,10.082862242986073,0.0808184811847249,-0.0458540352053307,0.1443572946513132
289,2890,0.0094397702943468,-0.0466666145751577,0.0084766806079671,-0.0220968130580917,-0.1554659308100006,0.179023819556877,10.122092486194456,0.0739596743473962,-0.045229641814078,0.1467688528255777
290,2900,0.0042220698490893,-0.037876552991558,-0.0151421655074013,-0.0471006753776706,-0.4289406056855854,0.4722709307239091,10.25312998855035,0.085807633093523,-0.0516870869634378,0.0901474868964266
291,2910,0.0367097070487793,-0.0262724909521402,0.0201035127159283,-0.0287631856849713,-0.3244827262008747,0.4431293393185885,10.088771877818289,0.0954944659057392,-0.067494255088816,0.1692854138167205
292,2920,0.0132738462725977,-0.0250084659096656,-0.0119099634455918,-0.0203060325287447,-0.3442155347663382,0.4598243746986682,10.355619059950856,0.1082671470981079,-0.0399420124864559,0.1975425877854313
293,2930,0.0125462710404999,-0.0463925391253855,0.0095997523863751,-0.0223059392340138,-0.5275346077232599,0.5339817975162614,10.126545929685182,0.0919715683498151,-0.0600541736810508,0.1271569909906764
294,2940,0.0191595012335992,-0.0316180979502037,0.0035623119680438,-0.0260779305702768,-0.2863044046583367,0.4870266552325391,10.517506889752685,0.0582625061664551,-0.026474775478745,0.0889105578807942
295,2950,0.0215887669596102,-0.046576376976049,0.0121504646648171,-0.0476700136287109,-0.1295528383783162,0.4230761727008643,10.33879771768337,0.1109462700652076,-0.0396187040842032,0.1396328000542989
296,2960,0.0162915246353435,-0.0388965741903593,-0.0170874268723229,-0.0345109586714073,-0.3571435806744255,0.5900935518394578,10.318965260478333,0.0602996858763014,-0.0578176511717859,0.1662107500236317
297,2970,0.0086529750131622,-0.0483508968962178,0.018699688233791,-0.0555731160134622,-0.2471809406831617,0.4159908187680472,10.438931379091306,0.103316018649449,-0.0440040024215165,0.1285043327025348
298,2980,-0.0078833279736454,-0.0494611720545763,0.0062871062817217,-0.0381566871323137,-0.2090872659251406,0.5559575044981433,9.936264649418742,0.0799084367260587,-0.054674720022112,0.1695280678781463
299,2990,0.0190880218460984,-0.0333651066558829,0.0225530776565056,-0.0584857403652189,-0.2881642205964129,0.5783665603132293,10.309425385980235,0.1099654766641335,-0.0598807720591489,0.1134093674012455
300,3000,0.0134543183990805,-0.0297685915957988,-0.0018827068319077,-0.0366464151810571,-0.3869454922345265,0.4928169698781576,10.396449118136012,0.0469501958289787,-0.0500062906654858,0.1587604238836733
301,3010,0.010033134977268,-0.0390100734479072,-0.0025914719278766,-0.0490162559192876,-0.3499228644058376,0.5402472725066911,10.24348340977032,0.0552666629617784,-0.0366244620824131,0.1405170627552172
302,3020,0.0144098024191377,-0.0306667964745156,0.0141201133275128,-0.0432943080456975,-0.4129745531528418,0.3958089057203455,10.164885972097762,0.0441308745042433,-0.049097669917695,0.1416162327790711
303,3030,0.0014413782801634,-0.0283022361258902,0.0075821687945858,-0.0175765400336985,-0.363077029847337,0.4929712345094343,10.245396435373264,0.0788909300237319,-0.0531350528079315,0.1397807173153687
304,3040,0.016662274185413,-0.0328126636285947,-0.0138253982331818,-0.0499458777422396,-0.4196158479432239,0.4094046438138873,10.172721802200382,0.0652731319139893,-0.0519750680434989,0.1005073681103419
305,3050,0.0362724724106048,-0.0330176834157987,0.0119297009618978,-0.0357035780838337,-0.3593036588252274,0.5499406998702638,10.125275695969508,0.0705846250757182,-0.0566741094555068,0.0719735385514615
306,3060,0.0228484537622758,-0.0331231610524217,-0.0039654498787203,-0.0489932431288986,-0.2057561444297026,0.3092931051913365,10.171250123543317,0.0485286642327919,-0.0512847087063411,0.1120770665825585
307,3070,-0.0018492831322222,-0.0487148869853797,-0.0202397837888279,-0.0216698942608592,-0.4754468903137584,0.3352784832108617,10.480697269903892,0.0972583484886004,-0.0577151258399648,0.1729509655618945
308,3080,0.0011018775084342,-0.0504924107409788,0.0176983454755725,-0.0500663055129181,-0.3388070366945651,0.610568561313738,10.218334030725966,0.0997906565891099,-0.0468858865597043,0.1424993625794688
309,3090,0.0018075832650191,-0.0604253752265564,-0.0122219504240414,-0.0440603207293625,-0.49529383451956,0.3873677355182155,9.786046682486049,0.0856265602876351,-0.0440552789375741,0.1879630147237216
310,3100,0.0096312578447984,-0.0546880580896845,0.0132862680819742,-0.0339387433186512,-0.1872023161621254,0.2713451410822365,10.120894020994385,0.0902670831953499,-0.058735354057812,0.1710746418002018
311,3110,0.0077315681600951,-0.0203577809286369,0.0010256087803376,-0.0304579329230373,-0.2483680833860072,0.4585019381751903,10.214230787519048,0.0477599155461318,-0.0599457828032613,0.1267839402028671
312,3120,0.0221923441297984,-0.0444532490875248,0.0236076665436882,-0.0279151785767581,-0.2500805099016538,0.4793146633509303,10.026771551929428,0.0550801187636944,-0.0427345794397516,0.1274444310504385
313,3130,0.0456481279464263,-0.0423698293689047,0.0309071014625785,-0.0283963730005867,-0.3152817882839945,0.4122520914381231,10.002610731593611,0.0488665292911116,-0.0438981661694509,0.1110581948720349
314,3140,0.0443775191888375,-0.0122997317643313,0.0303335230899828,-0.0153705307273676,-0.2230922909216345,0.49674935278643,10.07962386270508,0.0765317395413546,-0.0684378962804461,0.1146979044167788
315,3150,0.0194960968725988,-0.0650790502616785,0.0127253706849175,-0.0422196411713643,-0.3129728487112829,0.4510368986665393,9.987625133806628,0.0481297042523878,-0.0567145200251697,0.1216655649884021
316,3160,0.0062008584762232,-0.048335021723483,0.0066037433143364,-0.0309607707224432,-0.4032396619885849,0.4480219080267417,9.6570346252685,0.0434779321799728,-0.0536955728520493,0.1522771939479104
317,3170,0.0345256325231478,-0.0607629409471979,-0.0101548567902573,-0.0307416355325135,-0.3289698207253703,0.6111729634835021,10.062407745821067,0.071630037458362,-0.0535191966554124,0.1361354639040516
318,3180,0.0375918350753553,-0.0280418123002797,0.015174908830079,-0.0015284612789924,-0.2992559589528575,0.6479917766404992,10.217438935086486,0.0619840051926463,-0.0430199299441669,0.059102036608034
319,3190,0.0464323446064724,-0.0253219836762427,0.0223959262765487,-0.0007533828110876,-0.2551291145265557,0.5082063796696573,10.382961017196967,0.0894695380670286,-0.0231103541932608,0.1759704510444325
320,3200,0.0497533698229935,-0.0210526834459926,0.0458727073754858,-0.0018023793410804,-0.388766924569693,0.2575240486229668,9.81963686631119,0.0584145649836832,-0.0382366629513051,0.1437021992468428
321,3210,0.019536731808944,-0.0409361466760621,0.045677319031629,-0.0222348669073312,-0.3029280471982136,0.4502456936597067,10.22358155422422,0.071996077789996,-0.0510137775683701,0.1474828193938976
322,3220,0.019536731808944,-0.0409361466760621,0.045677319031629,-0.0222348669073312,-0.3029280471982136,0.4502456936597067,10.22358155422422,0.071996077789996,-0.0510137775683701,0.1474828193938976
323,3230,0.016822419489064284,-0.03899936147619035,0.042725218268405224,-0.021419001567204266,-0.2839477631105459,0.42916349901134904,10.190387567080801,0.06524279957474552,-0.048140341027911315,0.13907490508182924
324,3240,0.014108107169184569,-0.03706257627631859,0.03977311750518145,-0.020603136227077337,-0.26496747902287826,0.4080813043629914,10.157193579937383,0.058489521359495034,-0.045266904487452526,0.13066699076976085
325,3250,0.011393794849304854,-0.035125791076446845,0.036821016741957674,-0.019787270886950405,-0.2459871949352106,0.38699910971463375,10.123999592793965,0.051736243144244555,-0.042393467946993744,0.12225907645769248
326,3260,0.008679482529425138,-0.03318900587657509,0.033868915978733906,-0.018971405546823472,-0.22700691084754293,0.3659169150662761,10.090805605650546,0.04498296492899407,-0.03952003140653496,0.1138511621456241
327,3270,0.0059651702095454215,-0.031252220676703336,0.03091681521551013,-0.01815554020669654,-0.20802662675987527,0.34483472041791846,10.057611618507128,0.038229686713743584,-0.036646594866076174,0.10544324783355573
328,3280,0.0032508578896657085,-0.029315435476831585,0.027964714452286356,-0.01733967486656961,-0.18904634267220757,0.3237525257695608,10.02441763136371,0.031476408498493105,-0.03377315832561739,0.09703533352148735
329,3290,0.0005365455697859921,-0.027378650276959834,0.025012613689062584,-0.016523809526442678,-0.1700660585845399,0.30267033112120323,9.991223644220291,0.02472313028324262,-0.03089972178515861,0.08862741920941898
330,3300,-0.0021777667500937244,-0.02544186507708808,0.02206051292583881,-0.015707944186315746,-0.15108577449687224,0.28158813647284553,9.958029657076873,0.017969852067992134,-0.028026285244699824,0.08021950489735061
331,3310,-0.004892079069973441,-0.023505079877216326,0.019108412162615034,-0.014892078846188815,-0.13210549040920458,0.26050594182448794,9.924835669933454,0.011216573852741649,-0.02515284870424104,0.07181159058528223
332,3320,-0.007606391389853157,-0.021568294677344575,0.016156311399391263,-0.014076213506061884,-0.11312520632153691,0.23942374717613027,9.891641682790034,0.004463295637491163,-0.022279412163782257,0.06340367627321386
333,3330,-0.01032070370973287,-0.019631509477472824,0.013204210636167488,-0.013260348165934951,-0.09414492223386925,0.21834155252777263,9.858447695646616,-0.0022899825777593225,-0.019405975623323475,0.05499576196114549
334,3340,-0.013035016029612583,-0.01769472427760107,0.010252109872943713,-0.01244448282580802,-0.07516463814620156,0.197259357879415,9.825253708503197,-0.009043260793009794,-0.016532539082864686,0.04658784764907711
335,3350,-0.0157493283494923,-0.015757939077729315,0.007300009109719938,-0.011628617485681088,-0.05618435405853389,0.17617716323105737,9.792059721359779,-0.01579653900826028,-0.013659102542405904,0.03817993333700874
336,3360,-0.018463640669372016,-0.013821153877857564,0.00434790834649617,-0.010812752145554157,-0.03720406997086623,0.15509496858269972,9.75886573421636,-0.022549817223510765,-0.010785666001947122,0.029772019024940366
337,3370,-0.021177952989251733,-0.011884368677985813,0.0013958075832723946,-0.009996886805427225,-0.018223785883198562,0.13401277393434208,9.725671747072942,-0.02930309543876125,-0.007912229461488333,0.021364104712872006
338,3380,-0.02389226530913145,-0.009947583478114058,-0.0015562931799513804,-0.009181021465300294,0.0007564982044691027,0.11293057928598443,9.692477759929524,-0.036056373654011736,-0.0050387929210295515,0.012956190400803619
339,3390,-0.026606577629011165,-0.008010798278242304,-0.0045083939431751555,-0.008365156125173363,0.019736782292136767,0.09184838463762679,9.659283772786106,-0.04280965186926222,-0.0021653563805707696,0.004548276088735231
340,3400,-0.029320889948890882,-0.006074013078370549,-0.0074604947063989305,-0.007549290785046431,0.03871706637980443,0.07076618998926915,9.626089785642687,-0.04956293008451271,0.0007080801598880193,-0.0038596382233331283
341,3410,-0.0320352022687706,-0.0041372278784988,-0.0104125954696227,-0.0067334254449195,0.0576973504674721,0.0496839953409115,9.592895798499269,-0.0563162082997632,0.0035815167003468,-0.0122675525354015
342,3420,-0.0320352022687706,-0.0041372278784988,-0.0104125954696227,-0.0067334254449195,0.0576973504674721,0.0496839953409115,9.592895798499269,-0.0563162082997632,0.0035815167003468,-0.0122675525354015
343,3430,-0.0174524885876538,-0.0057037369827965,-0.0194197355039235,-0.011260578899503,0.1104166561881491,-0.0709705836288209,9.672050886750696,-0.0320661049110132,0.0137801539791122,-0.0336442926427987
344,3440,-0.0242501381595713,0.0011327823123151,-0.0145349336885994,-0.0036821872200643,0.0322609495179832,-0.0129689485418777,9.793359047240218,-0.0345908598780983,0.0284403393049137,-0.0001680362858487
345,3450,-0.0338338788215703,-0.0056797349932196,0.0037615183241372,-0.0106649087295915,0.214050486069688,-0.0221015706884592,9.772738109640484,-0.057886475620408,0.0046396589501575,-0.0345214846255662
346,3460,-0.0149434659592504,0.0030684474236939,0.0004392475768035,-0.0169643358160095,-0.0213504414311042,-0.0097371002702412,9.613684350959472,-0.0222560729316966,-0.0080708967003608,-0.0138520966696361
347,3470,-0.0229093373199543,-0.0125245152144764,-0.0168823923649893,-0.0227369292501329,0.0219291642391194,-0.1024488590507514,9.913253746809884,-0.0399590923634902,0.0084659589839074,0.0145035635451021
348,3480,-0.0361379875440462,-0.0038296192805054,-0.0093881823967763,-0.0142510975632717,0.1160293693734405,0.1113269381024099,9.948602179455976,-0.0229576736673882,0.0215105727710014,-0.0298030885267878
349,3490,-0.0204738761406774,-0.0138412332514347,-0.0150424711496279,-0.0114267614895252,0.1200536165102281,-0.101549282985329,9.692152647562692,-0.0323063626902842,0.0109010027510554,-0.009064281358613
350,3500,-0.0180190377172704,-0.0372338423277342,-0.0498839421658797,0.0024719618754966,0.1594381669939149,-0.0377238850826936,9.819250639902618,-0.0394466468624935,0.0078747080660351,-0.0215814360789551
351,3510,-0.0375715795960655,-0.0135654374467334,-0.0317099136909632,-0.0240911508456356,-0.0117959718850941,-0.1937280416000716,9.4571740245142,-0.042079055173726,0.0095676506852888,0.0210359885213265
352,3520,-0.0036574029959855,0.007007356481746,-0.0032238881642221,-0.0071826457276283,0.0788096151018292,0.1214587696595751,9.402564058996106,-0.0310574038456253,0.0062376073208924,0.0353178000719011
353,3530,-0.031490220426592,-0.0207245511038222,-0.0228538371535702,-0.022968099255426,0.001013129865744,0.0725450157069669,9.8087994423888,0.0077061463903402,0.0242321197487907,-0.0238486206110325
354,3540,-0.0271558337473866,-0.0125556095359779,-0.0007639982978207,0.0057925581674513,0.0363010644161263,-0.0467824155111749,10.07198323174693,-0.0364398139203356,0.0254182075430202,-0.0049308180645058
355,3550,-0.023809122438787,-0.0115202666033983,-0.024920645470153,-0.0091600273526812,0.3200956609356026,-0.0362337443674831,9.664721493247654,-0.038827760903308,0.0198577979793839,-0.0245048693703112
356,3560,-0.0301872642559954,-0.0187948596981432,-0.032658259818425,-0.0322257273733948,0.0838123648384236,0.0307473051553544,9.480782961880582,-0.0298315942310832,0.0047836174100817,0.0017666598132904
357,3570,-0.0219270382314268,-0.001157267260504,-0.0136138333027081,-0.017276716884663,0.1787188589906763,-0.112406663564226,9.903118982160596,-0.0390592918302745,0.015977475795281,-0.014864012239334
358,3580,-0.0139133555598645,-0.0020656097610776,-0.0284272371712147,-0.0326578295758551,0.0638592534726948,-0.1085098854052142,9.84446815372172,-0.0283239010166476,0.0135599414531596,-0.0053086495674681
359,3590,-0.0342337378700519,-0.033188743508472,-0.0556975453340054,-0.0302419866600647,0.0690151705000156,0.0948227069110821,9.755691686443226,-0.0280911421950072,0.0014608934161205,-0.010358025237122
360,3600,-0.002130365743353,-0.0213703484017707,-0.0130960060285564,-0.0160647093837426,0.0969126490483524,-0.1390344441843544,9.80297134731609,-0.057152952011568,-0.002350414206078,0.0177405802748688
361,3610,-0.0145357308239482,-0.0062860834265268,-0.0114850782873313,-0.0134454872734477,-0.1496200696013846,-0.0578207388226693,9.83665125821778,-0.0311537726770266,0.0074560986537979,-0.0139925539810824
362,3620,-0.0199735557146622,-0.0108394620920162,-0.0123219129203469,-0.0219021939464189,0.0020578246184012,0.008844539779602,9.947556810977275,0.0115256635942116,0.0113746709828042,-0.0236725104383434
363,3630,-0.0180094626224546,-0.0175375388261388,-0.0190248822666549,-0.0224406091945706,0.0873999778021807,-0.1369634017569021,9.674233664929934,-0.0306515019057515,0.0120624566085523,0.0042339052464004
364,3640,-0.0293788903130924,-0.0108217066060358,-0.027548086164008,-0.0201863165784921,0.0801310966550256,-0.2229900415328728,10.224442574475594,-0.0373408441455358,0.0188142464723535,0.0048770425877729
365,3650,-0.0115110024552604,-0.0040121523517104,-0.0344962735712775,-0.023984738420217,-0.1472776495917998,0.0721767294301561,9.74921429883766,-0.0259060783386394,0.0069949474965328,-0.0100192596448651
366,3660,-0.0192629276521988,-0.0111940974973043,-0.0162121662572449,-0.004263075476345,-0.0351506400514714,0.055921911575793,9.764135233614368,0.0064364103926978,0.0072633309456303,-0.0146371840640843
367,3670,-0.0123269164741199,-0.0012954387970658,-4.031778159388141e-05,-0.0133116412492467,-0.1322421077090616,-0.0126141704557155,9.995194824760077,-0.0154786596542468,0.0018526438689147,0.0217756124905041
368,3680,0.0009611396064674,0.0060027005596745,0.0016626569575071,-0.0107701172464479,0.0007174643999074,-0.0324785640369804,9.701709423692488,-0.0295415754335505,-0.0024177190040627,0.0040469666110705
369,3690,0.0028545303607023,-0.0146262562860549,-0.0153390582030811,-0.0005627035603272,0.2349016340384486,-0.0631821644638926,10.105199573104112,0.0265241384815243,0.0055128767407002,-0.0032073491045022
370,3700,-0.001537535532871,0.0120963764374107,0.00101393991224,0.0004774031209523,0.0136957504143245,-0.0253954904256821,9.749785418616796,0.0110599982970876,0.0247879701104448,-0.0072163191542908
371,3710,-0.0151700052862542,-0.0336592388668618,-0.0235269652232345,-0.0206628373634971,-0.0331807795007484,-0.0216955913536766,9.791007079269963,-0.0330887524705248,-0.0075528055179615,0.0408145713435244
372,3720,0.001203009511409,0.0001728290126632,-0.0106414140776994,-0.0045801479932856,-0.0632686862680014,0.0833270273902753,9.458776072329313,0.0120324228101566,-0.0052714110406504,0.0184284415150361
373,3730,-0.0229235775070365,-0.0194647997652655,-0.0152990660215862,-0.0034243209626536,-0.047152794095676,-0.1852388289721218,9.797861613110587,-0.0179973689578664,0.0096153433473161,-0.0319548816171279
374,3740,-0.0032684392988644,0.0099486596481648,0.0058657189343502,0.0109855766809517,0.1554008725342919,0.1277277379938378,9.268281242645267,0.0375678318861534,-0.0044829932385423,-0.0039637142097392
375,3750,0.0074124297008091,-0.0013987238058898,-0.0022624927262268,0.0039074366008351,0.0540948126612942,0.1246422509231325,9.6424562616204,-0.0377486111506636,0.0118142664496057,0.0135717785268384
376,3760,-0.011840967843946,0.0050966981372185,-0.008618446279826,0.0030395772105161,0.0513888088962589,0.0160609155732102,10.135466343933494,0.004799856281103,-0.0137323437565266,-0.0556036221279496
377,3770,0.0060501071713637,0.0144862906051101,0.0003702631691529,-0.0186017567398449,0.1424064480542115,-0.0997033651528297,9.66773067629572,-0.0295230559007534,0.0144282512462163,-0.0006747305019053
378,3780,-0.0087265756439533,0.0201085558730335,0.0019578575105631,-0.0002251223952394,0.1012413858744846,-0.07236816610667,9.588764880797155,-0.0130909887361568,0.0140204334207573,-0.0043481882647053
379,3790,0.0070269577813532,0.0112104945820993,0.0023742457645461,0.0010354389769569,0.0346192507586071,-0.0249273796562731,9.915255406632845,0.0196513200937846,-0.0076632729441732,0.0303946150295847
380,3800,0.0123579860733566,-0.0067193049451167,0.0150959869861003,0.0144755198737202,0.02039373746556,-0.0701208729463485,9.95731878747782,0.0164965017005048,0.0003859439358244,0.0075819948316314
381,3810,0.0102209122130552,0.0061357132264148,0.0027773213438195,0.0242160906654137,-0.2080281542759528,-0.0563212951073263,9.725868166644666,0.0075176513621985,-0.0013526725959734,-0.0375247660548932
382,3820,0.012519124003238,0.0145538127645522,0.0075293565014391,0.0206434737743234,-0.1408597720526345,0.0440525582037817,9.460232052104809,0.0235038981631212,0.0081056385168756,0.0086185904938297
383,3830,0.0266327248204856,0.0220014272985126,0.0030791660771472,0.0135590697714202,-0.0896009847759121,-0.0901734750391561,9.9437616540849,-0.0229424382534245,-0.0133468285946363,-0.029886025479046
384,3840,-0.0009468878134556,-0.0041293245373499,0.0143033326821441,-0.0076743590605595,-0.034476410291979,-0.0392562991827364,9.69730131684484,0.0118341754737697,-0.0153676454323237,-0.0346046082717909
385,3850,0.0215806668914262,0.0078152900997016,0.0297609312341268,0.0216901879962656,0.0966593709445797,-0.0948096398398063,10.022272473633516,0.0317590821542329,-0.0012464588605014,0.0196550265553163
386,3860,-0.0052398683326101,0.0141523016784501,0.0135554810270993,0.0014418686351657,0.0759889337422284,0.024486938714721,9.88256126608329,0.0089389083916858,-0.0086405441967047,-0.0012696820771202
387,3870,0.0277920749853501,0.0165747514673256,0.0068640066735791,-0.0044300071595769,-0.1234048184029693,0.170427324941851,9.918316837953231,-0.0047978336647632,-0.0117025695369534,0.0229575991077335
388,3880,0.006504319243909,0.0141832962588925,0.0354862345096958,0.0028250190223839,0.0571888896316346,0.0366479540349232,9.61012088712164,0.0249178221080373,-0.0094295401337235,0.0077944389413913
389,3890,0.0293729779404146,-0.0022973703839317,0.0072120141106114,0.0265434880976188,-0.1284469492239751,0.0257443396251234,9.69065848947954,0.0438641900160873,0.0105332834478453,-0.0196170204477702
390,3900,0.0163344569492721,0.0141657263251138,0.0289831315246909,0.0176602408768585,0.2401883876998777,0.0018433376514773,10.381194128183276,0.0294432489737254,-0.0041062418089864,-0.0005297242901139
391,3910,0.0329059821092883,0.021695720034603,0.0167635513225303,0.0202819217432982,0.0752719898798416,-0.0134827320287122,10.126391805745588,0.017040372585212,-0.0042989238029034,0.0254764425594698
392,3920,0.0185709848850603,0.0049156807249454,0.0175140854387078,0.0286909342711165,-0.0605009528390121,0.0460163700134907,10.005814746558633,0.0171414710109596,0.005840192088184,0.0256835230615099
393,3930,0.036281245730149,0.0196752057011663,0.0216751646479403,0.0069533071091735,-0.0130306305414837,0.1068552920030332,9.676099827716364,0.0541489941751588,-0.0118745155640231,0.0022498658580747
394,3940,0.0191789396955501,0.0133980916935846,0.0190015709396915,0.0124807178704718,-0.0686121462130775,-0.1382165892837343,10.023499567499982,0.041361886940944,-0.0182391692120144,0.0207178420838368
395,3950,0.0091562906115689,0.0139181571214845,0.031641723846098,0.0259996574423141,-0.2531040616847282,0.0510288301758634,10.280074528940286,0.0349350936709866,-0.024137085746006,0.0171814780654009
396,3960,0.0008097574356929,0.0041075670325862,0.0171784418997734,0.0120364442961124,-0.1961517700670419,-0.0682451644970596,9.908904359901973,0.0128685508229327,0.0048015561231468,-0.009294510259053
397,3970,0.0182742225527872,-0.0096402490371957,0.0254842373019907,0.0172946938251089,-0.0038457568155151,0.115034727641904,10.241543835568317,0.0401562349343525,-0.0393896201688349,0.0271695145543457
398,3980,0.0192318717767001,0.0144215061038705,0.0216508229687014,-0.0134130890900004,0.0175089394036839,0.1040316340940787,9.683128174654776,0.0320587324624134,-0.002276216409998,0.0073372640790635
399,3990,0.0063428866044492,0.0004185125109151,0.0110243339921116,-0.0084459950073389,0.0685309257592768,0.0819415316555448,10.04833827116652,0.0242093757343424,-0.0127319973017246,0.0182769502747505
400,4000,0.0258792093099758,0.005545171316328,0.0206651345328996,0.0189503372116843,-0.289111046885449,0.0433872035365298,10.186351656103314,0.0199963631322593,0.0136126263372743,0.0292009460221647
401,4010,0.0218287971348823,0.017604262645216,0.0107106921534593,0.005715224839607,-0.2217686990427673,0.1765510279213758,10.311087797255531,0.0164484071982944,-0.0100094997402202,-0.024119179845076
402,4020,0.0229187495638206,-0.013384394959081,-0.0065170205285803,0.0107179908404456,-0.086016391082352,0.1368125193776043,10.013485085203724,-0.0014777823921369,-0.0221744196576981,-0.0119302598767226
403,4030,0.0052778963663434,0.0179687057677549,0.0169489867565871,0.0165836067873083,-0.1644317859049864,0.032060364692672,9.982420134998517,0.0418480880318852,-0.0084550396591996,0.0049765082878356
404,4040,0.019412984016439,-0.0189834950050456,0.0235134101346099,0.0135078304967668,-0.1640492344403238,-0.0356787074776526,10.02815840296614,0.0325909237434595,-0.0096668610381402,0.0248742315526489
405,4050,0.0430488800653081,0.0056506759414878,0.0155988637002971,0.0268274676668542,0.0539052206279768,0.1103154843964161,9.930864048945004,0.0552470633018718,-0.0156005149991635,0.0374874109576359
406,4060,0.0071862865565901,-0.0125203977328308,0.0211620182775049,0.0019233111300409,-0.1172362338454622,0.1016123839732172,10.04682473139272,0.017754663579263,-0.012852764356097,8.53688087534686e-05
407,4070,0.0394031972657315,0.0075959554455326,0.0183009960799263,0.022040566182683,-0.2080456786471309,0.0083335627325495,10.028722002029731,0.0328199817886325,0.0048051837928576,0.0325331586089792
408,4080,0.0360577091385747,0.0216744590209386,0.0018943258894127,0.0102882968551092,-0.1916575151533629,0.0891141378202298,10.003117362365847,0.0722124346725323,-0.0275207378050425,0.0076721843928605
409,4090,0.0134465399380817,0.0128008781502113,-0.0018276345927267,-0.0092323311434531,-0.1053648717072338,-0.0405001839973059,10.074178812342105,0.0406181886476293,-0.0096010141255953,-0.0234494230282632
410,4100,0.0088751922537942,-0.0145667033110165,-0.0015570346440991,-0.0087590153213397,-0.1407821725116736,0.1854956868155277,10.192589114532112,0.0283508437369512,0.0017502240299908,0.0166574731250381
411,4110,-0.0093444985498425,-0.0162022759418657,0.0085961711930643,0.0188018405069369,-0.1180878209909809,0.2078031527876179,9.810942490639084,0.0481365481390616,-0.0168010953325518,0.0161080528740336
412,4120,0.0187213507878593,0.0129283819990495,0.0205505487640724,0.0017550911347724,-0.2528318205520963,0.0956368540360058,10.238951493275428,0.026250692211808,-0.0171726141725249,0.0151640092664548
413,4130,0.0165953459133931,-0.0026698438649759,0.0179162869088057,-0.0044100840547507,-0.041850252510064,0.069842833619076,10.001102182190367,0.0495288136835106,-0.0362616576792284,0.0085942360539224
414,4140,0.0243674717363459,-0.0095339707521101,0.0088715999520998,-0.012277935884242,-0.0083102148079443,0.1256148333103413,9.802204033913243,0.0806342550204532,-0.0207607360728107,0.0605482433500437
415,4150,0.0161603945370614,-0.0204065303848672,0.0043398730505802,0.0160510746918037,-0.1438556336120149,0.1957629050189654,10.115214981168869,0.1022802839054251,-0.0268570661757317,0.0225076880814096
416,4160,0.018740708058835,-0.0060401713981625,0.0131893183245534,-0.0083160278820741,-0.0975014198174439,0.1604501366856246,10.354512176470504,0.0644736389537796,-0.0258174184604942,0.0247323456374532
417,4170,0.0249020798941664,-0.0048409805995988,0.0143153123763725,-0.0267606196779343,0.0118389428730236,-0.1670381575945023,9.893933595120751,0.0617433120307575,-0.0328706226899218,0.0222701391047411
418,4180,0.0104314371700451,-0.0011217190450684,0.0191994305953902,0.0023765420947479,-0.164009007811535,0.0979866746491353,10.057966246354283,0.0634011640386349,-0.0204549343286305,0.0209316463961011
419,4190,0.029035476857149,0.0057967335912894,0.0119281482156557,-0.0046160596963886,-0.1306102624916799,0.0895396029102335,10.35907434619746,0.0619444500673775,-0.0362445789569084,0.0546696066187227
420,4200,0.0254345921951317,0.0041379543075641,0.0289462389193579,0.0135826106931853,-0.1028377887254787,0.0100446385618585,10.055373113827248,0.0359510626419697,-0.0314427713495939,0.0377814167837051
421,4210,0.0353770558521827,0.0133779938192241,0.0262895231966373,0.0018154377670419,-0.2081194915668685,-0.1047983331002456,10.379960911162758,0.0552599445304677,-0.0356252919073262,0.0404907209360137
422,4220,0.0281225180394784,0.0044224458619805,0.0174096753952922,0.0187563617785846,-0.1699614464592927,0.036843389762035,10.739223335686775,0.0765628976324324,-0.0179037990020373,0.0067931132513496
423,4230,0.0331586628455439,0.0145298608180174,0.0325063514472541,-0.0068315994527258,0.0068478663449597,0.1452961062942164,10.195240930519253,0.0497448936963984,-0.0143921883947177,0.057552761523347
424,4240,0.0439307294085253,0.0107263997310954,0.0375816653748554,0.0034284970314784,0.0355272753099112,0.1518699911289933,10.351879802612393,0.0612739094975522,-0.0500229340836818,0.0247724740727339
425,4250,0.0343100342630258,0.0157291755161996,0.0248758611186475,0.0164511213893791,0.0286629135093983,0.1617778727198159,10.1001213993719,0.0493173400920392,-0.0346693298869785,0.075958976544882
426,4260,0.0376398915274536,0.0152741999756726,0.0298915452434056,0.036269919925295,-0.1997545448236227,0.2308966326801846,10.225292541191688,0.0607088967563102,-0.0333269370188832,-0.0037135038596527
427,4270,0.0440610925400958,0.0163611483002167,0.0296924836873333,0.012732323925955,-0.0326239955935146,0.1160064579018169,10.131221067090005,0.073714203611952,-0.0110408966361509,0.0676810014957754
428,4280,0.0328996524728104,0.013905372556844,0.0248403818122013,0.0318828656717945,-0.2000745957002134,0.2134582517723101,10.031840406531847,0.0664695903130638,-0.0289850853060696,0.0074621650705595
429,4290,0.0251551566504961,0.0187391658499925,0.0305831273329478,0.017556338247986,-0.1362412810457746,0.1507070161548037,10.506950687939469,0.0414901172304425,-0.0179473323312822,0.0363371317141269
430,4300,0.0497305520219525,0.0237489774242103,0.0376507380355876,0.0234977486308012,-0.0678724057864776,0.0950233500362011,10.03610537609097,0.0643840442655245,-0.0207599572075107,0.0673258176852306
431,4310,0.0344986493736331,0.0111954477845269,0.0449681990890856,0.0124942061856951,0.0098741061922849,0.2430213316079799,9.798557384412604,0.0689201155286843,-0.0313883650613575,0.0323320030656796
432,4320,0.0545176292553592,0.0201749550966853,0.0472078173898131,0.0229331297633991,-0.1040995223826349,0.0828116923462673,10.00222167957486,0.0515527673236451,-0.0203725243958495,0.0261273427965932
433,4330,0.0318123665674962,0.0034174240108797,0.0360181855205222,0.0145427217847871,-0.0724410083935933,0.1695212073302301,10.309831347802374,0.0519700012791276,-0.0252773356981403,0.0324778904365869
434,4340,0.0372505165198451,0.0030385983950885,0.0350425948619187,0.0270220817262586,-0.1595994032739594,0.0956348022894814,10.164638121492308,0.0934448155460296,-0.0361884640499315,0.0302323066370626
435,4350,0.0584817115634567,0.01456106251899,0.0495761777471068,0.0244522493048609,-0.0643577827251549,0.085963372696607,10.047199531897313,0.0456927691417742,-0.0214694405093025,0.0483676320089752
436,4360,0.0401356036499945,0.0144769663006286,0.0192352737905972,0.0290745342242185,-0.1795637722673497,0.1654685339114769,10.086224084350144,0.0899896282434953,-0.0332186272167419,0.0689989151629409
437,4370,0.0447048488986346,-0.0091613315775211,0.0189408225306079,0.0345334756016076,-0.1606831429940749,0.1267430330389493,10.154292121743742,0.0641816953704816,-0.010039420743597,0.0264358907364193
438,4380,0.0475718221123065,0.0145689791751541,0.0358082176360445,0.0179279635986078,0.0554478078025259,0.2650666877010185,10.233624427767976,0.0719460848159416,-0.0223002950757047,0.0392276804535415
439,4390,0.023726910097114,0.0150194507835789,0.0558180639221255,0.0123405195061075,-0.1464992435992023,0.167019654040937,10.38821872642387,0.0961569374448101,-0.0258027609300862,0.0248598639601796
440,4400,0.0699207240127253,0.01501632194917,0.0402639784707886,0.015692204516958,-0.2965878959991307,0.2391511788877336,10.302854961031194,0.0941805725230037,-0.0260919628851778,0.0443629729180578
441,4410,0.0492327142673018,0.025644640659389,0.0247187811163462,0.0311771145079853,-0.2623065695625891,-0.0197305029580332,9.828973894606056,0.0871251142387792,-0.0267387204506411,0.054308985646368
442,4420,0.0509661101262879,0.0030254187078697,0.0562055280932218,0.0130546227145688,-0.0654291021412948,0.0311474956301096,10.400816590259907,0.1212852522540537,-0.023277249142002,0.090739586602115
443,4430,0.0629948772955593,0.00976860355902,0.0268889956502322,0.0248288943845837,-0.3353585651772711,0.2183324749741123,10.53662628785209,0.0870682605830751,-0.0396378627081772,0.0813108745009967
444,4440,0.045497722928827,0.003622465281412,0.0399772356806846,0.0142200747125153,-0.2291955911037678,0.2316164140535463,10.343084748909853,0.1033401128862216,-0.0346488107331409,0.0572882505807367
445,4450,0.0441648315954878,0.0009515819473169,0.0276083596394925,0.0230701103351346,-0.214632203935797,0.3001884977127103,10.384350209804404,0.0730461439570119,-0.049961016606529,0.0205707794385044
446,4460,0.0680729186696941,-0.0054360041543139,0.0267317725694138,-8.881139207863979e-05,-0.1009782639586364,0.0862785525509721,9.94049992460555,0.0749565023182411,-0.046744006174085,0.0470171805997341
447,4470,0.0388825591605411,0.0025252465233602,0.0450077459998716,0.007486459195571,-0.3105676918363846,0.0794001301294433,10.61808451205028,0.0516298664873245,-0.0278361854560795,0.0433207056389211
448,4480,0.045868952613815,0.0019058628775129,0.0308393629673434,0.0012848892277085,-0.0073839401562973,0.1184487130187364,10.312945161998565,0.0564425880845624,-0.0398626849090945,0.0633984111587003
449,4490,0.0351355816812304,0.016604828643252,0.0468144399289498,-0.0065443091025107,-0.1853569322083656,0.2117346326157742,10.161918582157288,0.0619547998254669,-0.0318395685934849,0.040463055282196
450,4500,0.0290983473953825,-0.0188290412146931,0.0255343472897671,0.0004957186966204,-0.0959451629791072,0.1727279433579954,10.374955226720882,0.0516107058337464,-0.0236536305600853,0.0562328327284744
451,4510,0.0317200285694592,0.0023065254595985,0.0345396540820285,-0.0010147888233789,-0.2484615456963649,0.1936324637855303,10.204452566393156,0.0613741178955566,-0.0272898559007584,0.0890851062215177
452,4520,0.0377561549153307,-0.0131113900340239,0.0239388144575535,-0.0005777354132986,-0.2056082799824682,0.2040081381225823,10.511159093986349,0.0673481796387832,-0.0343278901775429,0.060605380919083
453,4530,0.0370797845761875,0.0023628158501023,0.0261228160274101,0.0135501154420246,-0.3129749971074208,0.2089089548889396,10.237176732770926,0.1160217415163043,-0.0272053880131796,0.0662573124075679
454,4540,0.0217136149034556,-0.0261532031619972,0.0310463975852684,0.0021037869298069,-0.2132348439490874,0.2279769034369316,10.319357978835962,0.0432905584630649,-0.0384287349623596,0.0666949379686422
455,4550,0.0286003743784751,-0.0345200465040691,-0.0008190148814706,-0.0117852957668027,-0.2757144267368816,0.2069582196584047,10.510218841330875,0.0596885293665233,-0.0326123647445456,0.0255365755341234
456,4560,0.0328033556154899,-0.0132122494310305,0.003377424657924,-0.0187407376236044,-0.1809652034668329,0.0967466962134292,10.943557942119796,0.0743161263161601,-0.0459679932819594,0.0340078811583859
457,4570,0.0141073853556195,-0.0283640566746796,0.0166970073277283,0.0086489264387241,-0.2350805036332192,0.2463290723435645,10.232651281887543,0.1060520045504774,-0.0409711224174191,0.0445413662790767
458,4580,0.0265757492792825,-0.0397817917698096,-0.0020558409976215,-0.011403661262411,-0.2925830319823069,0.2145208392255573,10.623081442772031,0.1123262018117953,-0.0535761778627075,0.0566085274119183
459,4590,0.0208288933062565,-0.0222753719245708,0.0254014544637162,-7.539908260256571e-05,-0.2328027244694076,0.2240428333727943,10.749037450500769,0.1036076384513614,-0.0399892214041113,0.0818012116194789
460,4600,0.0236816491838778,-0.0247849723055664,0.0077299901045294,-0.0232734717156113,-0.3012233176903697,0.1414822971202209,10.387134512901865,0.0767034024573764,-0.0211112487550488,0.0547673172775275
461,4610,0.0182016365701042,-0.0290850063238534,0.013508180969397,-0.0261836736928154,-0.2769110388772465,0.1898784438124018,10.26648428955336,0.0793901011045381,-0.0412711838800038,0.0641905066921405
462,4620,0.0086744431051843,-0.024287984916818,0.0015516905329859,-0.0094584416565499,-0.2766951964616017,0.18262216767474,10.638690159772835,0.0887652696079193,-0.0328526257135686,0.0561576665002031
463,4630,0.0131406085994094,-0.0304064288155136,0.0046362234765646,-0.0076332673028834,-0.1792364786354018,0.2849292506215032,10.255837346395936,0.0870157762538992,-0.0135691166834621,0.0337100539232542
464,4640,-0.0078011174830238,-0.0217326636572071,0.0143687638486549,-0.0082788086037752,-0.2223351529256119,0.3086301926953022,10.219762396471548,0.0564152586473245,-0.0465269981195493,0.0659046644078669
465,4650,0.0242235842817558,-0.016574113489124,0.014053828660183,-0.0202549146864595,-0.3955367493520154,0.3044453813742414,10.906121281018038,0.0709216317234505,-0.0482773962468104,0.0262909476896058
466,4660,0.0246506001670014,-0.013064323517723,-0.0030086823920568,0.0045835289607658,-0.2106048929631779,0.1692479936230549,10.115454497590193,0.1118877227025785,-0.0308027111526447,0.0649668358751139
467,4670,0.0203367932814896,-0.0202965475926418,0.0083536727861672,-0.0069428701898581,-0.2927939666673325,0.2428403543966779,10.54873040540934,0.0597149951792948,-0.0473363637412665,0.0461571527125309
468,4680,0.0032359425857011,-0.0344186268688546,0.0111846653352783,-0.0313711869452764,-0.2598814336294291,0.2162742961581907,10.001609179939411,0.0758805339998552,-0.0143298713358847,0.0515122640872091
469,4690,0.034861300319126,-0.0175095635813447,0.0083766726485508,-0.0292719900355128,-0.2704571957000166,0.1732685836191454,10.458897112335404,0.0649810147400656,-0.0454555763180273,0.0496898394460846
470,4700,0.0142099483400479,-0.0077909371377124,0.0112993516406959,-0.0258011267198464,-0.3092082180402542,0.2139112902952369,10.32414259428607,0.0907275972462831,-0.0299510600808232,0.0511679211485172
471,4710,0.029540307260269,-0.0150107122200457,0.0086798081646055,-0.0345024202357598,-0.1965548087913987,0.4400647538078718,10.07126241061168,0.084319148715715,-0.0403433302477311,0.0521026923890688
472,4720,0.0164586222240933,-0.0290285621148664,0.0048541118686905,0.0004918806761087,-0.2442319164897306,0.1843489089009769,10.524207537600365,0.0683916716412871,-0.0289654885354619,0.0180311871343102
473,4730,0.0293731310979971,-0.0392107998303833,0.024878824943752,-0.022324311331968,-0.1198266985206178,0.2145032828916375,10.389782769806132,0.1069184476200263,-0.0363930443743856,0.0367731192259708
474,4740,0.0146588599396772,-0.0365016550906543,0.010218807411805,-0.0244073221038098,-0.0497795679066817,0.2181435192536393,10.483642291733018,0.079273911271301,-0.0382835803956229,0.0954393754308519
475,4750,0.0334550668649534,-0.0213028975828398,0.0279806718886629,-0.0271889497153053,-0.2795578696198,0.2565657326840618,10.270063389977468,0.0711897689283529,-0.0288572725127275,0.057858446435393
476,4760,-0.0103730047879945,-0.0529325233031191,-0.0044782752916206,-0.033732031726361,-0.133318190977887,0.2170851751965509,10.251573396110812,0.1211117325540314,-0.0529467794303838,0.1092314912253105
477,4770,0.0288460574214661,-0.0187311396452914,0.0203593801623991,-0.0243069893000321,-0.3108859395468556,0.1549447442834718,10.449894323998985,0.0933844655371253,-0.0498945146234555,0.0666425488926395
478,4780,0.02263146757806,-0.0240442362205668,0.016265270785835,-0.0032004306584362,-0.2729238275597888,0.161356755913169,10.198443966249496,0.0794208260207313,-0.0489641787200289,0.0796228304628737
479,4790,0.0200788699550048,-0.017611135292068,0.0060003089647904,-0.0104255014300518,-0.2690473198150218,0.2295430602446124,10.380538140449096,0.0777230973782361,-0.0416055186322313,0.0931391386898415
480,4800,0.0327476226004788,-0.0157741484295906,0.0174675481328882,-0.0085517491536862,-0.4096255333225475,0.2273909385284573,9.893369716189367,0.112431352123758,-0.0546259651159808,0.0876659731356088
481,4810,0.0424568826373838,-0.0252651514673161,0.0249093586674316,-0.0056377830673072,-0.4147879905442606,0.1958313434892573,10.222111763219091,0.0643622255440581,-0.0410032800044657,0.0533364160481547
482,4820,0.0303242650868673,-0.0160087563383863,0.0222992883814739,-0.0256536589450779,-0.250845426879672,0.3436732586681982,10.457192709089757,0.0685032529435581,-0.0355368842128415,0.0561664328317597
483,4830,0.046192632141696,-0.0340804318563647,0.0113140994141396,0.0040358322532188,-0.1705375140573544,0.3328042778572522,10.094637872508054,0.0713234536091852,-0.0417080079954213,0.0725901760303438
484,4840,0.0484140115446252,-0.0333937365622343,0.0195326881505549,8.575151746839172e-05,-0.2953609164597394,0.3308142563357606,10.151498355754162,0.0900399302361378,-0.0589627707708425,0.0953461010430151
485,4850,0.0414064779453756,-0.0340670030069787,0.0262783089292379,-0.0226080938765179,-0.2444944411616211,0.3014443336170995,10.068298247151752,0.0654699253270808,-0.0299337894865212,0.0597870576021195
486,4860,0.040384491320693,-0.0316665150534134,0.0101890088183312,-0.0109329259841801,-0.2793254402124074,0.3989953007037864,10.328500195093971,0.0997545293871062,-0.0318290427657725,0.0783685306654791
487,4870,0.0461360555240004,-0.0315806893344552,0.0009142423354609,-0.017439859720902,-0.1521340221669512,0.3519414214105101,9.968417595248686,0.1405822624757586,-0.0226579712436429,0.047269965501562
488,4880,0.0114954224242292,-0.0244374156463513,0.0176008546418297,-0.0021350134877395,-0.2635431341113279,0.1622793303802353,10.424304622691098,0.0909815431784433,-0.0391885819682397,0.0473726558684602
489,4890,0.0220253227100498,-0.0400476823710863,0.005790615306574,-0.0246173408908553,-0.2318873804909303,0.2305769372911326,10.61807825959534,0.0733678379263681,-0.0497243098366192,0.0504653249148728
490,4900,0.0513239100049966,-0.0480190209501415,0.0082506632285183,0.0033860684823843,-0.3431069606867076,0.2438684994763336,10.34010078882781,0.0888983364609758,-0.053777717583161,0.1031908918423596
491,4910,0.0381358731103192,-0.0247020998514061,0.0254596966509123,0.0050919048141966,-0.2902971486769651,0.3585571012553856,10.725308114317002,0.1253641296432775,-0.0504965859963324,0.0866517320187695
492,4920,0.0086672572855193,-0.0290490619309178,0.0041436502630518,-0.0348058461102172,-0.2645270191994861,0.1923448746487279,10.389121887836684,0.1047263974193054,-0.0743710060391084,0.1027542572180955
493,4930,0.0330585978084758,-0.0386850849262821,0.0101862369204963,-0.0137923432917083,-0.296790942225709,0.3139334934618886,10.106623058278776,0.0556921472603493,-0.0329741165363746,0.0943858047901061
494,4940,0.0340040915935003,-0.0154217284579963,0.0087642501594441,-0.05379509268173,-0.2257800427996669,0.2517289422709063,10.198937452889194,0.0993725711212158,-0.0523664609205357,0.0821638129618732
495,4950,0.0202568772491712,-0.024601640210587,0.0180883402861304,-0.032017956528707,-0.4166147389717789,0.1194440047485345,9.948214095129869,0.1459069838997574,-0.0482164774910166,0.0694889407620272
496,4960,0.040744228965264,-0.0200487495675574,0.0208515012828041,-0.0143977223553952,-0.2209209035526577,0.4227725148651546,10.219503009637837,0.0995076817521748,-0.0444696837659481,0.0798866593329287
497,4970,0.0012482469714041,-0.05897036104859,0.0090978346151011,-0.0336509975899605,-0.3904339354136623,0.2805195714789459,10.19312079646078,0.1561512511272781,-0.0598743879823698,0.1043988238567867
498,4980,0.0102500711661637,-0.0422764661323936,0.0103332554325147,-0.0421681083980823,-0.2583300166283065,0.2538308341806871,10.652011580678307,0.0987824725594146,-0.0531222186464526,0.0814009398299578
499,4990,0.0273997287988483,-0.0471660741251025,0.0088919159615124,-0.0358995458727924,-0.2351100347386415,0.2517973216762167,10.597815262978196,0.0652130333923884,-0.037006864852952,0.0422299370772716
500,5000,0.0098039668701996,-0.0543863613415042,-0.0007760371770502,-0.0240108668697663,-0.1798271767226283,0.3825598915372272,10.210064877132105,0.1073815090948489,-0.0525802392366235,0.065950872728976
501,5010,0.0303354814484812,-0.0316682716664722,-0.002697779157395,-0.0332416783495217,-0.4269973872153294,0.2244331548248861,10.297711175275726,0.1216401842372437,-0.0475070484428477,0.0980726814264297
502,5020,0.0307362068938587,-0.0345052912864619,0.0203702284343347,-0.0160938269223813,-0.2353931731766305,0.3104565696251651,10.194914182476408,0.083657736263972,-0.0581232039926755,0.106529389930696
503,5030,0.0163486699948186,-0.0443177807899821,0.0105010331988937,-0.0263263700956183,-0.3710789487569185,0.4210393241926928,10.174558823939416,0.0896833811896467,-0.0476972592640913,0.1032661509617962
504,5040,0.0148864110329945,-0.0743340880191083,-0.0010639470163701,-0.0435753942232299,-0.3783880089415137,0.1838456738188401,10.279049437124616,0.1235000421365774,-0.0554234803023149,0.0964966517748018
505,5050,0.0124076614660063,-0.0640678749848387,-0.0056914999854873,-0.0383827606511479,-0.0743842095302314,0.3034178480406431,10.441900591568684,0.1240351286329968,-0.0517477869324538,0.064145621944646
506,5060,0.0274185456861852,-0.0495337128035893,-0.0117922037480463,-0.0553462266797608,-0.4538149015608404,0.1790792176134301,10.1188779127765,0.0625652719360888,-0.0543234363933277,0.1009939041198589
507,5070,0.0012455196108699,-0.0667806011325333,-0.0023166502729402,-0.0446326568278409,-0.2887350943030489,0.2862388795490578,10.038388881269752,0.1007436653748526,-0.0635429369004808,0.0642918411203639
508,5080,0.0123278490373792,-0.0681888565626038,-0.0174538878517005,-0.0378220344928173,-0.4357031041346099,0.5107850455047661,10.181314437710236,0.1056319687183063,-0.0533892178817135,0.0853985403186069
509,5090,-0.0249061647355605,-0.0522721202815148,-0.006719236362581,-0.0378499405691937,-0.2524855847420045,0.2597720628317046,10.40963862777476,0.1124734724216517,-0.0592782834434239,0.0126719043599398
510,5100,-0.0028725333533335,-0.0484228851647959,-0.0211434929967954,-0.0469298870890919,-0.4099739618277876,0.1288136666658436,10.072663604973478,0.097332227202264,-0.0456053953714393,0.065959970216581
511,5110,0.0088137385473931,-0.0718618176996431,-0.0066247230226317,-0.0622285229750503,-0.1588449818474827,0.2249906661822564,10.111442949647106,0.087548624291799,-0.056477844193614,0.0683604345981429
512,5120,0.0171953245846667,-0.0745686161783042,0.0128654013039072,-0.0535676298457766,-0.3157137606200376,0.3688118463958026,10.271072735279466,0.0726968141310006,-0.0461106917297258,0.0704962289594244
513,5130,0.0005771469837092,-0.0667340462624592,-0.0093862931452808,-0.0664360894789323,-0.2730275435561849,0.2459514066374153,10.488552403790711,0.0969436389358858,-0.042232214728001,0.0697309245195067
514,5140,-0.0016495869377472,-0.0534156718649017,-0.0322696334496173,-0.0383479861784491,-0.264409350589535,0.2476548891584706,10.16350555133203,0.125373458992174,-0.0351691726417786,0.0687343810940432
515,5150,-0.0127975680185896,-0.0455718143505448,-0.0063975489747405,-0.0419189901268704,-0.3879097134423808,0.3964468370167505,10.268157636612347,0.0914673515036001,-0.0668322713917363,0.0741699979063666
516,5160,0.0024392043407273,-0.0852199469247597,-0.0165439042423862,-0.0548520871051523,-0.4797826119019676,0.4415697106220312,10.438635708765922,0.1069736968136156,-0.0315712203099047,0.0514055924665177
517,5170,0.0044909956463503,-0.0577012345556297,-0.0210166644464641,-0.0573119863927228,-0.4771358119267962,0.2228031710121037,10.31107593132012,0.0680521169976142,-0.064215932722249,0.1019359245784197
518,5180,0.0060544838020189,-0.0655531919854765,0.0020360213613495,-0.0420453936352383,-0.1945695936936908,0.4243596265910174,10.50456940859352,0.0941248609300915,-0.0450192926106906,0.1180098881143027
519,5190,-0.0004571211083267,-0.0594749648215708,0.0063446735995076,-0.0438830356711144,-0.1306932427951724,0.3083799868548416,10.515614685464977,0.069016994609892,-0.0397011514344082,0.0788549985510098
520,5200,0.0049407760381592,-0.0561244714567994,-0.0282912272274036,-0.059771673760258,-0.1838014156696129,0.2448788428518817,10.366835434684216,0.116174820590929,-0.0601218334721146,0.0670656121463252
521,5210,0.0130012445131644,-0.0692823092458181,-0.0200136895960475,-0.0270635014225191,-0.1917087798774722,0.3909394802073338,10.306620168796636,0.094509781875317,-0.0558027128660465,0.0562335994225744
522,5220,-0.0032904410041027,-0.073480536038623,-0.0080808315742031,-0.0555803874911873,-0.3504350180557553,0.4019938300015919,10.129635212709786,0.1115432168967796,-0.0417773044546025,0.0632815842105591
523,5230,-0.0022351494370029,-0.0832053749365427,1.9084561602159683e-05,-0.0485038237405994,-0.2530367575616661,0.3881726450081128,10.479890623124271,0.0823298245635931,-0.0445905351749548,0.0760897031079684
524,5240,0.0078570298150568,-0.0786891157215017,-0.0069411924830244,-0.0432051058567437,-0.3964376147795756,0.13870212479686,9.964558592742238,0.0820456841975512,-0.0542331726281209,0.0547172754179728
525,5250,0.0118590794304359,-0.0527505863446587,-0.0128308975848057,-0.0369139066224376,-0.3910227981663949,0.3722933999857901,10.255155734859706,0.0897803507912558,-0.0451833282808325,0.0569428483399816
526,5260,0.0159241756018246,-0.0471287399351897,-0.0131945880456559,-0.0400097736211335,-0.3422847408098784,0.3578580376450276,10.330792387812505,0.1452373706945031,-0.034388311566365,0.0651254362980642
527,5270,0.0232650271894132,-0.0463069873926958,-0.0093436445298849,-0.0169183996367041,-0.3889665318850918,0.33935319862484,10.253287994045822,0.0640898767686624,-0.0622467433934228,0.0414600813491927
528,5280,0.032112069018701,-0.0479634339896783,-0.0042532776660736,-0.0341319167881485,-0.4267111315047657,0.3520401009888028,10.052198203660904,0.0915125320526485,-0.0413200582545379,0.1109245284909971
529,5290,0.0167658896420064,-0.0521715001384356,-0.0129803977063072,-0.0445203060573347,-0.4524311444260493,0.2817966370527062,10.512001639492745,0.1003706393676632,-0.0491046130280476,0.1073009904720334
530,5300,0.0265881711194076,-0.052664170182068,-0.0002234790462266,-0.0397124702088655,-0.2215599752435996,0.1977740042757703,10.306550304409445,0.0999067353723806,-0.04471364536743,0.0585794662789332
531,5310,0.0283090120735248,-0.0498262900276594,0.0006038866461947,-0.037905938390345,-0.1827329838372494,0.3124345325146211,10.386881989142582,0.1086752017044804,-0.0459680732674485,0.1169301762071971
532,5320,0.0267631712369945,-0.0390928902493977,0.0118102371280752,-0.0307262303726515,-0.3898563089897308,0.3445021293224389,10.164206908481544,0.0930442833992347,-0.0604208167809248,0.1114441839920204
533,5330,0.0308171584026118,-0.0321210406682839,0.004268043586719,-0.0189202958041969,-0.2776287951066126,0.4116945739958,10.026224618891687,0.0427446293932163,-0.0502079357853113,0.0843534759221964
534,5340,0.0326955134295501,-0.0419841411749371,0.0169386496484724,-0.0140741563369311,-0.2441666536952336,0.3919118144530944,10.050379926054315,0.0787491423523622,-0.0501822505534467,0.1123955666496346
535,5350,0.0202396945697688,-0.0594781780820479,0.0158546860759855,-0.0130307195006472,-0.1995993941118414,0.4266582608227,10.60714527450681,0.0773740563510649,-0.0490401143894905,0.0612097306909537
536,5360,0.0317361143224605,-0.0329942694514175,0.0133797556452665,-0.0334622042988604,-0.2924235537568254,0.323008426219401,10.259075109958538,0.0353895590600856,-0.0474965899228822,0.0813082759245756
537,5370,0.0159156303203656,-0.0428017365650959,0.0035844964583852,-0.0249215572369366,-0.4590480681984085,0.320342812014102,10.562619225583507,0.1028820429627478,-0.0371825831274897,0.059332205872243
538,5380,0.0368833980069138,-0.0478037902090204,0.0120482613164631,-0.0221672255834188,-0.3805781824370487,0.3461401206381557,10.045942527395686,0.0717975927134529,-0.0571095607552865,0.08038062768588
539,5390,0.0424845586365,-0.0509195394922877,0.003438774702514,-0.0246841969162302,-0.1400989097708762,0.4531642941746773,10.168110939733635,0.0886673665274392,-0.0359036627998989,0.0838859889468637
540,5400,0.0320604032843642,-0.036428993218493,0.02912532101105,-0.0180977913308126,-0.3038565463116066,0.2352027369000256,10.218544715257051,0.0769222055823112,-0.0611274924868561,0.0988259106045934
541,5410,0.0433785765141394,-0.0359155443773514,0.0115956116728973,-0.0291192781793439,-0.4329162888243594,0.476681713753408,10.383387116559955,0.0687238066789056,-0.0617292049054147,0.1143700077346853
542,5420,0.0135420824977655,-0.055685731093859,-0.0083541875723328,-0.0366392778144602,-0.3126916870828211,0.4226905559522755,10.012082547402802,0.0974665355603235,-0.0642843044911392,0.0502300776165944
543,5430,0.0200130134239339,-0.0469831418498694,0.0081611018064674,-0.0499376400564088,-0.2771570538340439,0.3022785655588152,10.316067802119631,0.0711995387469594,-0.0578107921445595,0.0937352437120098
544,5440,0.0430663750551042,-0.0543800286813903,0.0207693499231201,-0.030258735638299,-0.2492938161291774,0.3962739407992874,9.837772185765212,0.0622106575129935,-0.0422282699029292,0.0987938361820172
545,5450,0.0126143520778779,-0.0454569990358435,-0.0080680503517165,-0.0538824716752026,-0.3200738718057496,0.1346645745460601,10.043580572491717,0.0800124641956271,-0.0516138230966,0.1181275776768644
546,5460,0.0336380017786476,-0.0446981845778527,0.0153674646923702,-0.0282810548882742,-0.2746267684449183,0.3969693283130049,9.83050314242222,0.0700667615492778,-0.0356773416079113,0.0948546644096961
547,5470,0.0247577141564004,-0.0471246018699094,0.025465534405162,-0.028556207947069,-0.3024854689180785,0.2887284639919208,10.592787064980284,0.1010030470491148,-0.0491367388354736,0.0615497767692436
548,5480,0.0139945025480643,-0.0596946690897437,-0.006648042673489,-0.0428931134522896,-0.3130050434188463,0.4788933357341303,9.969081418258714,0.0646721738446354,-0.0377457298911759,0.1275867181052694
549,5490,0.0416152324218897,-0.0519260715568033,0.0200140173629719,-0.0368544684379311,-0.37852898432417,0.3298396401771427,10.503402051962444,0.096803994500487,-0.0357369753341475,0.0935617477274076
550,5500,0.036593186893427,-0.0511364600102369,-0.0226792738336754,-0.032822772007403,-0.1238004368599084,0.4399615271439707,10.113843234736674,0.1060050965388623,-0.0333055752563171,0.0866468476391389
551,5510,0.0062427488259471,-0.0534255042740411,-0.002972925205743,-0.045678405298585,-0.3338606476985482,0.3953752898338218,10.181858587994835,0.0453039067676168,-0.054507649249858,0.0706231222294371
552,5520,0.027719816528521,-0.0376337626562619,0.0243691177620293,-0.0380475209762361,-0.3134423633260749,0.2882682173954864,10.151622744363154,0.100029362461503,-0.0505891796058921,0.0917894164135274
553,5530,0.019518890579522,-0.0507995298065523,0.0034953384263105,-0.0268470718458298,-0.1942889020987908,0.2924649667954407,10.39890480425328,0.0723814811008733,-0.0365185166752313,0.1083449884847173
554,5540,0.0162769827259114,-0.0501407893057084,0.0088424927703468,-0.0541145848511588,-0.2562842144805434,0.2746548560803868,10.43318607491755,0.0823311012584221,-0.0451486708049621,0.0997160396114865
555,5550,0.0245948055511735,-0.0498344881901989,0.0122912661146015,-0.0529753561874737,-0.2677427223856437,0.2472533967133917,10.085246280348006,0.0976102917835077,-0.0477248279546605,0.1245790943943965
556,5560,0.0136524984633254,-0.0675604574070003,0.0120592917709055,-0.0447036033666362,-0.3700283340474419,0.4052806330774734,10.12914906751512,0.0611637348965042,-0.0412745769323208,0.0865026098725285
557,5570,0.025993205715625,-0.0516824519179551,0.028326277289034,-0.0584737079474111,-0.3571552761097137,0.4891147452659357,10.17916207714402,0.0890202801918653,-0.0395270788066372,0.1150516615329536
558,5580,0.0392645870241388,-0.0642556910557767,0.0100158902528564,-0.037946558779968,-0.3196411750163727,0.3720850226587668,10.577591075088616,0.0975147844514285,-0.0355833028429158,0.0937961372277705
559,5590,0.0319863291431867,-0.0342159091151195,0.0281179091132878,-0.0587231281810324,-0.1681763124013771,0.4056998368055184,9.934074648602746,0.061435659065864,-0.0499918704374517,0.0930219348141711
560,5600,0.013945417873547,-0.047076949043034,0.0093824740641152,-0.0411639486732462,-0.1761147175806501,0.3802813262685473,9.971925054625896,0.0882125572414087,-0.0542519019440052,0.1161628815889641
561,5610,0.0303466246275205,-0.0584671555831387,0.0173939064444283,-0.0530330260724242,-0.2257391561868568,0.355985753751389,9.927740473030587,0.0494817057432893,-0.0562384992264338,0.0970809038290132
562,5620,0.0272872006734624,-0.0373849590511933,-0.005028549328964,-0.0649933517153552,-0.3801952367769758,0.4156197636370823,9.964012024803916,0.0944109174928228,-0.0461771852191769,0.0775154137425263
563,5630,0.0209352002345945,-0.0713220126419839,0.0050205005319596,-0.0603828762769929,-0.1433767595998276,0.4996479721596776,10.386320843363778,0.1073300878324847,-0.0437542917765911,0.0861869407152916
564,5640,0.0348612346470351,-0.0536982920299713,0.0193481999485164,-0.0263819068651487,-0.3524003864128613,0.2379248304430516,10.074311755287464,0.072341031176894,-0.0563374203242966,0.0908930006112715
565,5650,0.0144234644795,-0.0800155852858016,-0.0131896588041096,-0.0574824431351999,-0.2010043103649534,0.3538678840679582,10.141674729484924,0.0877977717505523,-0.0572653311420148,0.0766603027881658
566,5660,0.0154868705639732,-0.0661891820106055,0.0079017075605045,-0.0477116504019886,-0.3892010951372529,0.3942222466674995,9.85276552069836,0.0225106694264476,-0.0568450373361644,0.1005621801728152
567,5670,0.0415568332268485,-0.0461245554776901,-0.0027734447634347,-0.0255771061392497,-0.3227956600572503,0.4158939584158962,9.988377005143718,0.0655986754974571,-0.055266076919803,0.0817224057113316
568,5680,0.0289897921327916,-0.0637525755581522,0.0201788999661254,-0.0401132152570039,-0.2054071920359788,0.3970532373028643,10.14493731651084,0.0641016340970492,-0.0336442261481254,0.1224648348870133
569,5690,0.0289897921327916,-0.0637525755581522,0.0201788999661254,-0.0401132152570039,-0.2054071920359788,0.3970532373028643,10.14493731651084,0.0641016340970492,-0.0336442261481254,0.1224648348870133
570,5700,0.027357610042485863,-0.05814948080863548,0.018489796703420602,-0.035280965264713186,-0.1781299581517533,0.3475774846978229,10.10523401883209,0.05743323054730222,-0.0288771392796206,0.108979349791632
571,5710,0.02572542795218013,-0.052546386059118766,0.01680069344071581,-0.030448715272422475,-0.15085272426752785,0.2981017320927815,10.065530721153344,0.05076482699755524,-0.0241100524111158,0.09549386469625068
572,5720,0.02409324586187439,-0.04694329130960205,0.015111590178011015,-0.025616465280131766,-0.12357549038330239,0.24862597948774015,10.025827423474595,0.04409642344780825,-0.019342965542611,0.08200837960086937
573,5730,0.022461063771568653,-0.041340196560085335,0.01342248691530622,-0.020784215287841055,-0.09629825649907692,0.19915022688269876,9.986124125795849,0.03742801989806127,-0.014575878674106202,0.06852289450548807
574,5740,0.020828881681262915,-0.03573710181056862,0.011733383652601426,-0.015951965295550343,-0.06902102261485143,0.14967447427765737,9.9464208281171,0.030759616348314284,-0.009808791805601402,0.05503740941010675
575,5750,0.01919669959095718,-0.030134007061051904,0.010044280389896632,-0.011119715303259635,-0.04174378873062598,0.10019872167261601,9.906717530438353,0.024091212798567296,-0.005041704937096603,0.041551924314725444
576,5760,0.017564517500651442,-0.02453091231153519,0.008355177127191837,-0.006287465310968923,-0.014466554846400526,0.05072296906757462,9.867014232759605,0.017422809248820316,-0.00027461806859180315,0.028066439219344125
577,5770,0.015932335410345708,-0.018927817562018473,0.0066660738644870425,-0.0014552153186782116,0.012810679037824957,0.0012472164625332294,9.827310935080858,0.010754405699073329,0.004492468799912996,0.01458095412396282
578,5780,0.01430015332003997,-0.013324722812501757,0.004976970601782248,0.0033770346736125,0.04008791292205044,-0.04822853614250816,9.78760763740211,0.004086002149326341,0.009259555668417796,0.0010954690285815138
579,5790,0.012667971229734232,-0.007721628062985042,0.0032878673390774535,0.008209284665903212,0.06736514680627592,-0.09770428874754955,9.747904339723362,-0.002582401400420639,0.014026642536922596,-0.012390016066799805
580,5800,0.011035789139428494,-0.0021185333134683265,0.0015987640763726572,0.013041534658193923,0.09464238069050135,-0.14718004135259094,9.708201042044614,-0.009250804950167626,0.018793729405427395,-0.02587550116218111
581,5810,0.00940360704912276,0.003484561436048389,-9.033918633213553e-05,0.017873784650484628,0.12191961457472683,-0.19665579395763227,9.668497744365867,-0.015919208499914614,0.023560816273932195,-0.039360986257562416
582,5820,0.007771424958817021,0.009087656185565104,-0.0017794424490369283,0.022706034642775347,0.1491968484589523,-0.24613154656267372,9.628794446687118,-0.0225876120496616,0.028327903142436994,-0.05284647135294372
583,5830,0.006139242868511283,0.01469075093508182,-0.0034685457117417245,0.02753828463506605,0.17647408234317774,-0.29560729916771505,9.589091149008372,-0.029256015599408575,0.033094990010941794,-0.06633195644832506
584,5840,0.004507060778205549,0.020293845684598535,-0.005157648974446521,0.03237053462735677,0.20375131622740322,-0.3450830517727565,9.549387851329623,-0.03592441914915556,0.03786207687944659,-0.07981744154370636
585,5850,0.002874878687899811,0.02589694043411525,-0.0068467522371513136,0.037202784619647475,0.2310285501116287,-0.39455880437779783,9.509684553650876,-0.04259282269890255,0.04262916374795139,-0.09330292663908767
586,5860,0.001242696597594073,0.031500035183631966,-0.008535855499856106,0.04203503461193818,0.2583057839958542,-0.44403455698283917,9.469981255972128,-0.04926122624864954,0.04739625061645619,-0.10678841173446897
587,5870,-0.0003894854927116616,0.03710312993314868,-0.010224958762560903,0.0468672846042289,0.28558301788007967,-0.4935103095878806,9.430277958293381,-0.055929629798396524,0.05216333748496099,-0.12027389682985028
588,5880,-0.0020216675830174,0.0427062246826654,-0.0119140620252657,0.0516995345965196,0.3128602517643051,-0.5429860621929219,9.390574660614632,-0.0625980333481435,0.0569304243534658,-0.1337593819252316
589,5890,-0.0020216675830174,0.0427062246826654,-0.0119140620252657,0.0516995345965196,0.3128602517643051,-0.5429860621929219,9.390574660614632,-0.0625980333481435,0.0569304243534658,-0.1337593819252316
