index,elapse_time,susp_fl,susp_fr,susp_rl,susp_rr,acc_x,acc_y,acc_z,rot_x,rot_y,rot_z
0,0,0.0146510888926171,-0.0126027347977718,0.0075198281351874,-0.0123347749348415,-0.0068937480085472,0.050182754614171,10.423972929829644,0.079329061169081,-0.0284513644318938,0.0878774136203418
1,10,-0.0148159721341508,-0.0266331006557834,-0.011209250371234,-0.0161741881961142,-0.1163103363099982,0.2521029947335597,10.323807061207914,0.1041227535541275,-0.0302637530493766,0.058995418807966
2,20,0.0089110338770574,-0.0290403698028361,0.0128676817014477,-0.0252860030126734,-0.0810298349801036,0.2664174262553612,10.098698071441357,0.1327470005613507,-0.0464392335346482,0.1426848077176071
3,30,0.0081092542852981,-0.0190553548749734,-0.0059625674283923,-0.0324606026583319,-0.2758508707626174,0.2087730334553747,10.182750183722568,0.1403623353849077,-0.0246579117598429,0.0800328829493217
4,40,0.018723064445229,-0.0216269822676232,0.0366343493518636,-0.0153165806086546,-0.2239616345053166,0.1968369678234199,10.533083544795272,0.0934298678386451,-0.040389802992136,0.0964957927481774
5,50,0.0247869964022049,-0.0076498722051175,0.0277400359708971,0.0063835712540024,-0.1213490097895355,0.1389065253267009,10.15582232493762,0.0878953866685988,-0.0560186210754472,0.1264569152373246
6,60,0.0078925982650818,-0.0266547610733131,0.0257754839498508,-0.0178462200036339,-0.1608325118312098,0.3955105959395072,10.142366983995627,0.0940346677601339,-0.0457164711415187,0.1459007701105735
7,70,0.0282375966002199,-0.0159300287507304,0.0047194553701703,-0.0087380605171157,-0.2830557288452393,0.2560579509958145,10.4258708510589,0.088015013792477,-0.0409249221244255,0.106480389871064
8,80,0.017151225550782,-0.0327133976842971,0.0113218690864683,-0.0299042249101023,-0.0801479200950651,0.4176666844409411,10.534860542396531,0.0857129088324259,-0.0556264100302656,0.1047559977731533
9,90,0.0070544236386425,-0.0160890253709186,0.0093084991495015,-0.0188516438943793,-0.3233015678697133,0.3394327343257802,10.349510221229908,0.0923013399692309,-0.0721102575664549,0.1045939548554345
10,100,0.0167398036616231,-0.0171659696329447,0.0032271867278234,-0.0141685848581964,-0.3665599235467692,0.2754663258269898,10.428053259994003,0.0941375972429298,-0.0484426405543284,0.1321960309050747
11,110,0.0068449023251496,-0.0115530766098221,0.0196590745902763,-0.018484941474575,-0.3870489018927327,0.2287408937441181,10.40433949823766,0.1158961391812284,-0.0206013999293411,0.0877536302312132
12,120,0.0150857778281936,-0.0206248104856419,0.0290824296601739,-0.0234793156999555,-0.0462045909883066,0.3121625825959971,10.433307539735498,0.0726140963638582,-0.0298849774185322,0.0844574658122933
13,130,0.0216081318430691,-0.0010300828288674,0.0197389952260197,-0.0327618073815637,-0.1514634262933998,0.3232356442698011,10.459804597487818,0.0774191214846299,-0.0462786070568629,0.0898454110498717
14,140,0.0244671816496724,-0.0171684721353514,0.0312360366445138,-0.0026729110801652,-0.2123970084517734,0.395932754776731,10.12575918251089,0.1045288853460957,-0.0353247228194329,0.0444687139079043
15,150,0.0497017214076295,-0.0149153618897656,0.0332485908605751,0.0008453520334662,-0.2072762950754657,0.298226522686007,10.451689779368731,0.0636355735116447,-0.0407142562201291,0.104564539879824
16,160,0.015409095193908,-0.0253973391974376,0.0249444816895874,-0.0240607783905553,-0.3366711977771036,0.2586749903693732,10.202035568226496,0.0613073328602908,-0.0306991344872993,0.0375942094810699
17,170,0.0068958650255943,-0.0163370886071839,0.0275518860921196,-0.0026209996116938,-0.1902103402772433,0.1570421442682463,10.24946281405422,0.0724982124097552,-0.0499970679715211,0.0936870197260736
18,180,0.0330904098375322,0.0030813938834295,0.0199880945005457,-0.0254609466723975,-0.1889209619589584,0.1464024543497636,10.314951627660683,0.0786314920756554,-0.0417671597198981,0.0364397462998437
19,190,0.0056287471512908,-0.0199136407333668,0.0222513367438981,0.0061382658033655,-0.2936325310799464,0.3175684446445463,10.547538059889014,0.1009142458113803,-0.0543168843411268,0.0363552218642954
20,200,0.0410004778816413,0.0058198777310052,0.0274387653153263,-0.0161147150748494,-0.2781427676811875,0.208301321525226,10.205991149991911,0.1128163144440875,-0.0534611862238696,0.0496986718650829
21,210,0.0301912360729314,-0.0228039691051287,0.019586350907116,0.0061050172221135,-0.2076364419693632,0.2370257802769083,10.007982161226948,0.1082811594882915,-0.0418258740873542,0.1055526923494632
22,220,0.0033096166345268,-0.0219941640295696,0.0148654521255133,-0.0082925759016505,-0.3790588013957382,0.1535158379950295,10.571678355190317,0.0963953899463171,-0.0422609700004066,0.0973191539092989
23,230,0.0111485267932527,-0.0222002033150849,0.0109150632062589,-0.0011028816210628,-0.1658077140242394,0.3489640997026235,10.164924862704238,0.1094340032213057,-0.0497168752597909,0.1621598964909054
24,240,0.0129067102367974,-0.052246581583916,0.00241756075564,-0.0323694894759299,-0.4061603330840485,0.3291728603595554,10.693266820842611,0.0858275700854533,-0.0508859959856323,0.1257210730116724
25,250,0.0098174742887967,-0.0255315440693444,-0.0044408595683393,-0.0106003625258581,-0.1730668264441197,0.3607987007265711,10.45508685350246,0.0810481038196364,-0.0517333246911975,0.0731208518978457
26,260,0.0224892932928945,-0.0308423832407644,0.0111824032161325,-0.0176218658447648,-0.3065931737332123,0.2348292679205902,10.175513485716207,0.117159499392292,-0.0396999074769192,0.0754722407330617
27,270,0.0144386967970705,-0.0368952096865298,0.0224078067672769,-0.0220021498608173,-0.3865891049962301,0.278277846345326,10.343106320616531,0.110998153892945,-0.035630317863734,0.107702809072788
28,280,0.0367813449609614,-0.009724278804506,0.0180531362978746,-0.0075046143262239,-0.3485845509501596,0.1920463533390554,10.446068696854924,0.0650362192887962,-0.0330318892618838,0.0639392347558946
29,290,0.0249926762646293,-0.0150899810208564,-0.0047963597923701,-0.0047841275751903,-0.2699032267676214,0.4947445372897119,10.434826038815377,0.1470344431890153,-0.0227043460356391,0.117529421711013
30,300,0.0129655521493653,-0.0087789422036739,0.0022935121543247,-0.0410187309929531,-0.2683309023364357,0.4189111035398474,10.098786999664153,0.0666245797012974,-0.0622029708548612,0.0755842912505996
31,310,0.0134262112990694,-0.0217443277824295,0.0060224974591147,-0.0364688970063796,-0.187411160841564,0.247259192940093,10.430445973170228,0.0964319310355921,-0.0483011300497995,0.1309661405912097
32,320,-0.0024036593824956,-0.024108991746884,-0.0174576621679725,-0.0461913849075806,-0.0456015692555319,0.3699892276291148,10.19720018331535,0.0963562374234178,-0.0437708646624845,0.0831168208563441
33,330,0.0272570952495582,-0.0177746101946096,-0.0022467780647738,-0.0160546682470549,-0.3634363001893159,0.3788012628520792,10.251942735807896,0.1005989158604103,-0.0324776794486235,0.0392347039030174
34,340,0.0014081817687065,-0.0285703562243515,0.0014256365426573,-0.0261709522756916,-0.0796619264439328,0.4295102289482156,10.270965035725268,0.1143258826664926,-0.0272612343203279,0.1564839757220432
35,350,-0.0062239495891507,-0.0421395229536194,-0.0095966835045574,-0.051089330175036,-0.4138068183475539,0.126569816536872,10.196370399166645,0.1289953076231025,-0.0475263062854002,0.0846839105402793
36,360,0.0080268414348837,-0.0613544320885191,-0.0071602555699143,-0.0317893875656416,-0.2782702566676465,0.3067932998796816,9.967448961446395,0.0557730584128362,-0.0496386070491732,0.0914836390871001
37,370,0.0063131794615524,-0.0275844504716955,-0.0207870607937711,-0.0422843389000526,-0.3915233776791129,0.321421149653447,10.36157388269423,0.0757544723616851,-0.0409313513101282,0.1235416916891518
38,380,0.0010714789411968,-0.0306193849144202,-0.0075635914910954,-0.0464656469434601,-0.3383777253328136,0.3323819115753748,10.476345207920266,0.1038501259115897,-0.0468677242562789,0.1439475517160766
39,390,-0.0129297599779341,-0.0433505580006523,-0.0160100827631208,-0.0533969633501105,-0.3800596677708397,0.3792850490096286,10.472541588469946,0.1345026526447622,-0.02886056191345,0.0630989993747705
40,400,-0.0178576727415017,-0.0572571239928202,-0.0076688471812279,-0.0395120624310594,-0.0793648913160935,0.4289833871313042,10.438989935379794,0.0822572602278662,-0.0358707197767991,0.0776484883085841
41,410,0.0029371935447661,-0.0302130045920441,-0.0022114742906165,-0.0453367093328505,-0.2450181886457816,0.443606484849098,10.170146629840684,0.1044658660581194,-0.042231967363797,0.1088785816725176
42,420,-0.0146940353086402,-0.0524014679210995,-0.0233313049642024,-0.050146642891723,-0.3339496742506555,0.3747380837474804,10.181419163346453,0.1366943030987291,-0.0534062432866878,0.1409199093411062
43,430,-0.0129976550605989,-0.0515114337505788,-0.0077387262031284,-0.046596100532694,-0.2976308433964084,0.3166475050868571,10.42878639767526,0.0880804457341277,-0.0410676649429698,0.0963575344617798
44,440,-0.005805380382456,-0.0460193301722594,-0.0038921419184126,-0.0370687183858439,-0.4646951358550346,0.3533836375985483,10.23319189261388,0.1579128090139677,-0.0647011625739399,0.1077306222139107
45,450,0.0025885868107709,-0.0510079330872561,-0.0007882680161507,-0.0362086397009114,-0.422567529075696,0.3479800342178786,10.462979504017865,0.0639314782158876,-0.0545512440997522,0.1538188302702968
46,460,-0.0138145640769392,-0.0473989467886885,-0.0033024154854826,-0.0485542941091784,-0.2888634484295082,0.3987634128562279,10.245508983138132,0.1231173184558967,-0.0526935021502565,0.0753883894987964
47,470,0.0043885555429861,-0.0523481847562275,-0.0134946536621673,-0.0422283830779891,-0.3961672037287097,0.4538174365349623,10.262824630473354,0.0931612044123221,-0.0443766544291912,0.0894322898591187
48,480,-0.0114431654245117,-0.0495939374288977,-0.0329407670055211,-0.0606585069961073,-0.3505798386111776,0.3609917284058986,10.449602748870394,0.0819267226307261,-0.064283199029381,0.0929556167172782
49,490,-0.0170666530214431,-0.0522452814046532,-0.0205432835133989,-0.0725725942715513,-0.3295423158639861,0.2394924905011954,10.614620001856592,0.0976290813765734,-0.0400487830346329,0.1484388445535306
50,500,-0.01357362316994,-0.0327617336169074,-0.0154084728355003,-0.0370497774251713,-0.1475518807030709,0.3653851341012149,10.143939303432656,0.1170087712880433,-0.0635607832742721,0.102040761691296
51,510,0.0039963034901881,-0.0364955156732576,-0.009332865477972,-0.0308412188726711,-0.3184422123466477,0.3862403369624656,10.367926158623824,0.087482101265689,-0.0469583791807962,0.1212029333003984
52,520,-0.006012550541712,-0.0442855121589679,-0.0100004567401875,-0.0660704307897066,-0.2094296889817927,0.4824569045669032,10.368964024079355,0.108535419311333,-0.0387971139552338,0.0824460143192988
53,530,-0.0071318007181675,-0.0746868449339357,0.0039493136502637,-0.0459952994750179,-0.2964693130415497,0.49543779053789,9.96295285343532,0.1007147849765263,-0.0726226114925657,0.0998234373281082
54,540,-0.0207513185272882,-0.0513932819855394,0.0018765834293932,-0.0290997517649158,-0.3063123030766008,0.3296942075055306,10.335574008689845,0.1029021331012405,-0.0650111448516964,0.1438318560499533
55,550,0.0024756491352568,-0.0475008579967551,-0.0061103281668832,-0.0335411631420902,-0.2969745232437614,0.4185786631848825,10.04038377685365,0.1188506519337215,-0.0370942165879236,0.0952593607249725
56,560,0.0016694251689909,-0.0470737154883155,0.0040459448746917,-0.057454941845854,-0.1867022636781257,0.4793207018350488,10.371264723754592,0.1069293148065606,-0.0554545518883111,0.1260780876171067
57,570,0.0096370324345849,-0.0392621535641578,0.0037185513368514,-0.0385279559410184,-0.3833747396080525,0.3826782588539119,10.278588237563698,0.0792992337666942,-0.0470583364642911,0.1679346517136719
58,580,-0.0014769389941363,-0.0543252556059145,-0.0112798092166358,-0.0383690861417122,-0.3547610119532143,0.5970939061072128,10.094973290693993,0.0888581369907808,-0.0563880039362809,0.1360458116353138
59,590,0.0008154903048119,-0.0523623609709247,-0.000535166805893,-0.0306888052507293,-0.3175205514336834,0.3183259533137014,10.19151529498479,0.1053407001029282,-0.0488483676957672,0.1401742031286173
60,600,0.0005689751839522,-0.0460791148557463,-0.0104438487654626,-0.0238368664111208,-0.0887839175628351,0.5128892228805296,10.371604818308288,0.1265272713716833,-0.0444039180318321,0.0944776553847765
61,610,0.0036867720821917,-0.0354642505087642,0.01162173309117,-0.0321490213557182,-0.2765486141733833,0.3634893620872563,10.3878109968455,0.0739269815609748,-0.0493725780157588,0.1391961024901856
62,620,0.0140187873133338,-0.0402813997362598,-0.0017717125367166,-0.0437848805994067,-0.2887653240956575,0.2570211072350549,10.46081847528635,0.0777310429509833,-0.0495334782415154,0.145790770167666
63,630,0.0053142130032342,-0.0476834745893026,-0.0033352973573766,-0.0342519694680041,-0.3976208983908699,0.4761328749649418,10.32698053769912,0.0744412924691262,-0.0474726092307048,0.1235480199584993
64,640,-0.0019502884326889,-0.0366917757757654,0.0002336680749448,-0.0288433611790964,-0.221015228079634,0.4428945668503441,10.640854066414416,0.1098045619551962,-0.0591779271466398,0.1798162453777884
65,650,0.0225045999767344,-0.0458668943191676,0.0182369735160379,-0.0348455263146821,-0.1746850039838321,0.5001049387511096,10.173404531455354,0.0750669015295952,-0.057722467700308,0.1116526613382221
66,660,-0.0016176541657171,-0.0519609707231143,0.0172344950203915,-0.0450379933370942,-0.2284649592344599,0.3626277130417526,10.141425203574226,0.1192342101626045,-0.0682394690591906,0.0886556446405513
67,670,0.0211851304110834,-0.0359431889980452,3.6247648251271775e-05,-0.0257246076512429,-0.3684994078256681,0.4777300303326021,10.788548930654652,0.0710629521433314,-0.0512670431721458,0.1660284828814439
68,680,0.0104270368809222,-0.0405240198009388,0.0165112306299354,-0.0358403456303218,-0.3098588254067392,0.4382911089683496,10.61163586049009,0.0910386655442238,-0.0479270502017026,0.1682798927978503
69,690,0.0246331770499401,-0.0218486014791338,0.0180917665584717,-0.0266875205225688,-0.2761094439312074,0.4111934206802163,10.399080262345167,0.1160918634082505,-0.0524660944754376,0.0943515022526465
70,700,0.0316987700490168,-0.0517562600200416,0.015362149342288,-0.0192895910509589,-0.3368914253777105,0.3794260451180494,9.941044414250712,0.1253396925776591,-0.0318335500197256,0.0648209347284563
71,710,0.0266489316247493,-0.0240125875768464,0.034431631730381,-0.0194685477539575,-0.2937278207511322,0.5007402689942948,10.457008536548631,0.0686265580437645,-0.0656562046468208,0.1358368270516474
72,720,0.0192260695389792,-0.0399193648325185,0.0325855009668527,-0.0244135277943961,-0.2306220539739004,0.4405979715984479,10.133541458430916,0.0747097271784299,-0.054965009951659,0.1126397736865414
73,730,0.0349982758105901,-0.0289767005564171,-0.0090655696872301,-0.0209332015734314,-0.3013374097658675,0.4197770271571958,9.727365922994728,0.0804841988683758,-0.0617855088044598,0.1316764132413568
74,740,0.001155310376263,-0.035131651291272,0.0026901210781867,-0.0472504470702504,-0.2701422231493132,0.3621204763932884,10.142264020172192,0.0444356102328359,-0.0615615228520924,0.1485193050554399
75,750,0.0392303891861617,-0.0292291965432899,0.0018782417323297,-0.0156614861295819,-0.1774610365600435,0.5418002085524117,10.18880164561713,0.113224395568097,-0.0345029462722523,0.1095152028170099
76,760,0.0081480160740937,-0.0568026178431578,-0.0068540493095788,-0.0480115705798616,-0.3450834743840982,0.3987290873924856,9.998027730510271,0.0735511675353933,-0.0470488190689187,0.1077861475139173
77,770,0.0199889079854346,-0.0455566472992772,0.0023575072819084,-0.0424664448799938,-0.4201890181805289,0.4498837925755511,10.438001204120944,0.0669699327748014,-0.0294153319152454,0.1328048243132254
78,780,0.0242034963903033,-0.0204382498029671,0.0140117747765307,-0.0215531847447171,-0.3855413558729254,0.6458897764083614,10.47394404035857,0.0728856916464204,-0.0558304587522011,0.1424660187853541
79,790,0.0317256969326833,-0.0370184332547147,0.0247646321756713,-0.0231355073639066,-0.2256247705580801,0.6390473573196696,10.034338095491384,0.0823793882489652,-0.0487910469643659,0.1329234752879767
80,800,-0.0071955444751097,-0.0352659906294069,-0.012462516971661,-0.0418548025743051,-0.1456540025096661,0.5979550748815152,10.251350512917575,0.101769276123815,-0.0449859159121598,0.1342148476307491
81,810,0.0188206161365638,-0.0502139038722388,0.0073979420373945,-0.0406508774001723,-0.2172054004980274,0.5115467810453094,10.385674989550314,0.0813529310841871,-0.0573971144119175,0.1662732472097522
82,820,0.0030372342065639,-0.0343049896085745,0.0153126991113782,-0.0410768548046122,-0.3523184675951474,0.3251084066224217,10.48592648015917,0.0366675423573875,-0.0667114799168112,0.1068710508960693
83,830,0.0186555282131356,-0.0511284356776937,0.0173145122337919,-0.0555709067434979,-0.3412519032137151,0.4408408903905528,10.41136242100007,0.1155740926383802,-0.055223257949288,0.1337873821201498
84,840,-0.0131649148553401,-0.0321233598008995,0.0125698361267515,-0.0545672094771599,-0.2698387722037448,0.521553962376477,10.315890735382942,0.0869172660090971,-0.0454468034870022,0.1700616479056005
85,850,0.0191348032504807,-0.0307111652502794,-0.0042937812988132,-0.0512514147742981,-0.3227415951886221,0.4016239014714573,10.319869954139476,0.1171190961632207,-0.0358601079026706,0.1674008569429384
86,860,0.016644289014321,-0.0212858616769393,0.0459391691817761,-0.0304986443777871,-0.4163605285713337,0.5536515017545114,10.439145539754788,0.0954173802149323,-0.0503127584574192,0.1067827170578945
87,870,0.0216257818718697,-0.0278232219086698,0.0199944861387563,-0.0159718234317999,-0.3505610718070562,0.6102338920052031,10.03944187521252,0.0699877018933584,-0.0479521805197681,0.1372909839907496
88,880,0.002760207229541,-0.0610608110069247,0.0089086445162951,-0.0304960710016248,-0.3658104430960139,0.384383140553792,10.16092586584046,0.0891102954501141,-0.0384317934360768,0.1151677981628984
89,890,-0.0119386007522664,-0.0433239590071042,0.0002874029511159,-0.021602343132236,-0.1972214281112002,0.5257063421339868,10.195739306757693,0.0656421259914278,-0.0457295553180227,0.150147756114712
90,900,-0.0043399420002034,-0.0549376318539202,0.0138321022449466,-0.0417329942069356,-0.3795953972273796,0.4852857708200778,10.342366919756545,0.0875197903244682,-0.0463870330465602,0.1314752171329886
91,910,0.0039701859865963,-0.0484859081957974,0.0075753888808833,-0.0187506011575092,-0.3527663358814381,0.5963465655068887,10.088348326235264,0.0838181789554856,-0.0455958957096903,0.1415590111917299
92,920,0.0158408826382796,-0.0524660839326552,0.007289360111281,-0.0441298674795846,-0.2929532532857386,0.3896502076991691,10.088801385860952,0.0719316831095334,-0.0621726092374389,0.1509082801287931
93,930,-0.0097662877275993,-0.0623054907433866,0.0086976800826685,-0.0500545172748349,-0.2697909245573597,0.3437098237751907,10.258346946765588,0.041400652588021,-0.0377958661217975,0.1509568600985137
94,940,0.0178219767164394,-0.0457926072311561,0.0155541027355252,-0.0445828214855245,-0.2583002984419494,0.6432702466750437,10.247183465949169,0.070779593883843,-0.0566550046384938,0.1039489629726072
95,950,0.0046441103193248,-0.035857034186343,0.0150206942110029,-0.0343680071001195,-0.4109664981994197,0.5474423592161939,10.602804853437243,0.083856066435442,-0.0512634176728963,0.0608809519383846
96,960,6.880561728898546e-05,-0.0313923986032366,0.0240333570269623,-0.0435623496994517,-0.1471431217131167,0.5266648946393926,10.04615239932694,0.0677000694986332,-0.0459780437209137,0.152014395251554
97,970,0.0127961957477905,-0.0366575800201453,-0.013702525833362,-0.0333364745590773,-0.2973562399188892,0.4628215053936907,10.185586062684528,0.0714431677088664,-0.0438901331879755,0.1234107146063577
98,980,0.0036596378011406,-0.0447936235528019,0.0085199905070557,-0.0352554684948562,-0.3003152112383258,0.4205420767071053,10.2564435003078,0.082308806983414,-0.0559622923902059,0.1476092402937679
99,990,0.014429079627384,-0.0405408694858645,0.0198977238177044,-0.0452843914601884,-0.1254071697651029,0.4638945836192025,10.06968890559089,0.0562550157460955,-0.047540585182208,0.1605661359170022
100,1000,0.0261937997247812,-0.0346614383200396,1.441981148759229e-05,-0.0334091024130076,-0.3170768296790808,0.3141205576981212,9.969417862466582,0.0768302193334774,-0.0510028976632868,0.1029720246690261
101,1010,-0.0067366928498543,-0.0435438764574653,0.0150655895388353,-0.0638953024527317,-0.3475899356501191,0.53919707820157,9.852376203386616,0.0369828210069025,-0.0632336872109785,0.1210758729143008
102,1020,0.0102720774972807,-0.0398355833006814,0.0203816922980122,-0.0277915924559286,-0.2332196739099329,0.5203272466315031,10.163761159354708,0.0972674913487872,-0.0628581457060385,0.1258960328633818
103,1030,0.0165361419026965,-0.0379080617717178,0.0128724793125902,-0.0249473970571702,-0.1497989280046077,0.487856920961997,9.97394216105431,0.0496148620196226,-0.0451916336421551,0.1151206119493366
104,1040,0.0366839085248942,-0.0275597023913279,0.035748758173015,-0.0276079973282422,-0.2297004540012617,0.3147816202813727,10.055108164296572,0.0383049290110832,-0.0438071373298547,0.0604656403448723
105,1050,0.0221605067965071,-0.0364818542545554,0.036755476314526,-0.0201447637577022,-0.1144866284425264,0.4819332006762131,10.404422718029696,0.0244997242579519,-0.0465483253846279,0.1801169854388876
106,1060,0.0462254901476899,-0.0218248792236043,-0.0055686752390886,-0.0263278189221642,-0.3393740163618337,0.6869427181983723,9.746904496448696,0.0750489475439582,-0.057810114422769,0.1612078527217997
107,1070,0.035421283639378,-0.0231702834489268,0.0081588726431494,-0.0231330303304215,-0.3485024181389133,0.4748948776673362,10.383104654073223,0.0836373691878578,-0.0235327523899599,0.1722847360987516
108,1080,0.0182698441005402,-0.0318457333632564,0.0186874406668312,-0.0265879868546578,-0.2383077978704721,0.430701426566173,10.021438150753069,0.0587485022561016,-0.0317014524641746,0.147460802173862
109,1090,0.045077707480356,-0.0161908854752482,0.0158919580803754,-0.0195151662135599,-0.1492796383202413,0.5430208803996986,10.001655721329112,0.0736421319271999,-0.0291693341106733,0.1879996253799008
110,1100,0.0232687371866181,-0.0322331570375587,0.0231558725792751,-0.0355956422360964,-0.3364256707879714,0.4830392815499224,10.360929594692006,0.0821298818252901,-0.0773528321679998,0.1723623659131251
111,1110,0.0434901563489308,-0.0285503644859204,0.0343979324762211,-0.0290238786751366,-0.3334298607355161,0.5691604973658781,10.533387479762478,0.0697940667890185,-0.0782521044847444,0.1048179457125519
112,1120,0.0354167167157532,-0.0279395391208806,0.0439187593891128,-0.0172694726386951,-0.1950849886527807,0.4970880387701819,9.704823289273522,0.0615634677257989,-0.041260051329147,0.1444662832671107
113,1130,0.0308844678984361,-0.0081618701544947,0.0466860557128232,-0.0167082432579777,0.0725642495952603,0.4637611898159446,10.041474356003958,0.0624057802867873,-0.0487088880004981,0.1618815544889798
114,1140,0.0546013395859299,-0.0158404476251769,0.0327850432883266,-0.0236685788553427,-0.2990782595344774,0.365278982793819,10.114169164085826,0.0867148059044877,-0.0489932992969463,0.097257979646569
115,1150,0.0448334725496788,-0.0134428118465035,0.0559037545435734,-0.0216332933673549,-0.0741196100051796,0.4357437455447519,10.262472590621323,0.0521387990751275,-0.0448498010954612,0.186033488401851
116,1160,0.0314198665811715,-0.0278261320357582,0.0257186105324016,-0.0315637859783755,-0.022065368541259,0.52561258871957,9.882189192742135,0.0210489816207978,-0.0522924157227662,0.1207186425410319
117,1170,0.0389589589460983,-0.0063527686284516,0.0392145776299086,-0.0069699411163012,-0.3625977174968414,0.474866334320054,10.059809963534072,0.0659786302394396,-0.0469340662703544,0.1478947093567261
118,1180,0.0554200157355231,-0.0171191625151659,0.0345494535519644,0.0205320337873036,-0.3396330060923384,0.6652218993764379,9.898719346800224,0.032661040739922,-0.0526776821660992,0.156522649156067
119,1190,0.0294727801669301,-0.0079903439671726,0.0304822788694998,-0.0213697311613819,-0.3427392387409248,0.6600490458030694,10.149726665688398,0.0327680227863099,-0.0316577750593088,0.1326148371025137
120,1200,0.0504513335047919,-0.0189432206309561,0.0502020014825541,-0.0090210473784853,-0.0647182128307775,0.479339898347731,10.067047566122724,0.0494688207238943,-0.0349125616473894,0.1153611918934273
121,1210,0.0168262674816428,-0.009167126158253,0.0298638228257239,-0.0062077218096303,-0.1614620079047266,0.4769120683830992,9.935053322087354,0.0316971499540877,-0.0386725260607402,0.1184986362018371
122,1220,0.0685887148881185,-0.01241750889361,0.0345367812929646,-0.0111294080727427,-0.1364229965529221,0.5266905466966326,10.122253034192031,0.0524486440309064,-0.0278977280080925,0.1986623895687045
123,1230,0.0461618271975042,-0.0166583452329722,0.0151119463617311,-0.0119369021765531,-0.2864764015593569,0.4487945160428427,9.861830889104697,0.0320738260001905,-0.0603657741601647,0.1460166381230454
124,1240,0.0609386797961386,0.003289318243552,0.0487440426578441,-0.0022351953920864,-0.3619707739646189,0.4957034135057631,10.082491757932791,0.030058779866667,-0.043030567361193,0.1471662911189528
125,1250,0.0459952052324503,-0.011672541125754,0.0382086435074696,0.0022215945607034,-0.2063603497572965,0.6862120737873827,10.162007223101476,0.0505998162780131,-0.0372322887339472,0.1566496915356137
126,1260,0.043098844345582,-0.0046402555802265,0.0299747518400859,-0.0202645056302728,-0.4396560697099724,0.5059445064381829,10.429464258033192,0.0146967034725149,-0.061343455996144,0.135023961950481
127,1270,0.0544160674458051,-0.014362483714688,0.046935140180703,0.0001819677628945,-0.2293659711575784,0.3694980827879121,10.032682220256875,0.0386318519087131,-0.0555704115154876,0.1219603917583234
128,1280,0.0315662452510231,-0.01438936695601,0.0420762264698162,-0.0054842003124658,-0.289419028393566,0.4462427834130609,10.157437885255415,0.0538077819179811,-0.05906849283575,0.1823923048017755
129,1290,0.0454443689857681,-0.0335153693907682,0.0355842807684019,0.0015182891774337,-0.3503275274497857,0.5795851045474655,10.122745743318394,0.0371633011096435,-0.0459099299991198,0.1606700131734896
130,1300,0.0403257836790064,0.0012428934408585,0.0346850837468488,-0.0111314876714408,-0.3766896078741294,0.5355432916094833,10.118162387979824,-0.0135106229955086,-0.0374700174569638,0.1346262430771617
131,1310,0.0182358191082934,-0.0220655692194506,0.0464665052800997,-0.0159928668394588,-0.2366126086202236,0.4483408066762644,9.72044542260811,0.0681579277192698,-0.042420106839177,0.1470598219595441
132,1320,0.051741109428041,-0.0188666391106889,0.0356936052808773,0.0099719637758618,-0.2716341546005168,0.4567480026091127,10.199177029880504,0.0524682868553981,-0.0446768487238801,0.1302277555203687
133,1330,0.0355600398236259,-0.0105308832894529,0.0409089172273762,-0.0054503110342714,-0.3547988585597161,0.3967879707324007,10.029147316433932,0.0298867046686996,-0.0434758203232997,0.1404355487623438
134,1340,0.0334139590469308,-0.0313237474328094,0.0276499668171558,-0.0071260823934352,-0.1195852275349306,0.5238930880099847,9.794085214840257,0.0247436602087395,-0.0309636127713643,0.1360088793307251
135,1350,0.051836957765889,-0.0171718260672939,0.0447636670661664,-0.0066793565783955,-0.3898456057478505,0.5158564596381381,9.90362626401171,0.0128104219391589,-0.0434729277946521,0.1332473214981663
136,1360,0.0359767543899312,-0.0270336659768979,0.0617746505648717,0.002371683087729,-0.2905933151496636,0.6854074584660871,9.728407010460243,0.012696925845436,-0.0511440850740982,0.1699864366140873
137,1370,0.0324739105846604,-0.0188975516771765,0.0186957407171834,-0.0282512239076017,-0.0641623392322889,0.4822357924592254,9.79606151651903,0.0122266272819067,-0.0391841241298453,0.1711776839249351
138,1380,0.0291966621424407,-0.0122046387647055,0.024835598557786,-0.0402230695132982,-0.1952137688358057,0.5376045394960528,10.22415472195082,0.0333477283078219,-0.0400244847728711,0.1191949323644338
139,1390,0.0286104946464196,-0.0231729668292825,0.040415875414855,-0.0094000644862966,-0.1270826424689075,0.4598509439642352,9.692572409220002,0.0499543646324612,-0.043287052854578,0.1673864348467783
140,1400,0.0529715467897984,-0.0156209227969602,0.0324186998156465,-0.030323682230207,-0.4852695783765006,0.3189619128537499,9.703703707519116,0.0334405156474229,-0.048959211188441,0.1444291208551654
141,1410,0.0371046179961603,-0.0329217487504465,0.042636535161145,-0.0131426975635311,-0.2835066549418016,0.5702616943393299,10.201862467958772,0.0299227230195801,-0.0209009601458068,0.1536319387952747
142,1420,0.0329456303386175,-0.0088655266883462,0.0298024541633167,-0.0041441100354359,0.0204234172956183,0.4596702232717075,9.953969452523443,0.0018608692475229,-0.0216833920397971,0.1088076661870708
143,1430,0.0329637276747316,-0.0303900393638988,0.0268175825346839,-0.0227269292966522,-0.1313511849780012,0.556914001600894,9.735958228204089,-0.0319415494015651,-0.0312484944626304,0.1511932876844477
144,1440,0.0396274811394032,-0.0293584913139419,0.0161870129203856,-0.0100886474777665,-0.3251297223994343,0.4098832662466906,9.819213006847589,0.0271603683915647,-0.0211837586152011,0.1806588300259942
145,1450,0.0321409818448529,-0.0254221943435122,0.024531540294224,-0.0280052778630778,-0.1522428036746493,0.4275526145275033,9.81979670262117,-0.0019333315524721,-0.0241493880082781,0.130248808186136
146,1460,0.0415641956681869,-0.017985583220151,0.0367467105952984,-0.02360804722342,-0.4321792985855889,0.6334145852563484,9.999690275601694,0.0237961393549444,-0.0287557030530942,0.1459512009510103
147,1470,0.0249752603427535,-0.0327171811184783,0.0420672893868001,-0.0209876643521286,-0.2362253761255861,0.7374332037931829,9.53609727335956,-0.0127432499079111,-0.0421156161971207,0.1759347687359879
148,1480,0.0454887031089096,-0.0165021093966585,0.0128996031953766,-0.0039308052966598,-0.1762491659831206,0.4098522807080182,9.960538929724963,0.0117689324408033,-0.0379354234790433,0.1309499569172559
149,1490,0.033120598419662,-0.0159746573389174,0.0439835189136078,-0.0236107485960066,-0.2352993333553174,0.5526706292583604,9.854476410718794,0.016795828200294,-0.0384444072001402,0.1246325143351628
150,1500,0.0381841717560925,-0.0117631636708319,0.0253183104444184,-0.0116126047114344,-0.1415746375640206,0.3799098530823363,10.06460999213127,0.0381972425076322,-0.0422732456914251,0.0895600232227355
151,1510,0.0455016335238439,-0.0182430571768271,0.0478445321728876,0.0090813985187548,-0.1934856484332186,0.5879653255835233,9.949604546339662,-0.0103989259253736,-0.0373336178553299,0.1427073141991956
152,1520,0.0318765485024532,-0.0087317104709061,0.0330473293742849,-0.0216328292968796,-0.2456036195434521,0.4986178695831044,9.67374099821393,-0.0151911617857687,-0.033252505977893,0.1702180430995826
153,1530,0.0596110369038835,-0.0122626234424965,0.053804632182698,0.0087439398616499,-0.5352511628732965,0.6327167968860244,9.960657263095568,-0.0270556193100052,-0.0360284677026562,0.222397218425546
154,1540,0.0283324801691873,-0.0128211645237477,0.0401678012008074,-0.0058750730110675,-0.2376870714095055,0.51411178074925,9.506578574611463,0.0092176710293394,-0.0231695505460274,0.2109697213531897
155,1550,0.0471624606150363,-0.0107812039980911,0.025324983620223,0.0130531555724226,-0.4456021633558127,0.5015297042194307,9.990437787721532,-0.0196138316296559,-0.0373483995572145,0.0832760269596132
156,1560,0.023532662851989,-0.0089783267119168,0.0301180761437303,-0.0198680194509363,-0.1569276868525207,0.4563243545041843,10.010515085056806,-0.0182369619750262,-0.027665437717031,0.1272519199933077
157,1570,0.0287835171877137,-0.0189771817314427,0.0504696505755578,-0.0074049977016789,-0.3040930242341705,0.4490888268224975,9.990772890779306,0.0196173157862099,-0.0275208623916739,0.131425547678834
158,1580,0.0474247455971892,-0.0148918168793588,0.0420259584060101,-0.0002035919608059,-0.1719856239507153,0.5881673617394063,9.739083868665777,0.0016221203760845,-0.0405220071241798,0.1890979188814573
159,1590,0.0460687605607561,-0.0139188660866813,0.0452749103817082,0.0011756822927721,-0.2431896230517929,0.4763185088991336,9.914081395216318,-0.0417458228531191,-0.0436633410995433,0.1589661300594367
160,1600,0.052781056370363,-0.0229365262990397,0.0555759845595976,-0.005014476793316,-0.0880262325138336,0.2899866463367111,9.648087357827608,-0.0151188780553286,-0.0375048237268045,0.1550489015927456
161,1610,0.0605042813193444,-0.0010599693826634,0.0588104897082121,-0.0026758266019357,-0.1623466295221962,0.3850168488437182,10.002890445634833,-0.026135509682223,-0.0308738628104104,0.136957033371372
162,1620,0.031812546978392,-0.0193567254954233,0.0354079143734993,0.0004473810376156,-0.4631508905341204,0.4394434007963405,9.628337346926784,0.0474713581864695,-0.042784854065807,0.197927958420745
163,1630,0.0477387122334864,-0.0216276044694331,0.0344699583696434,4.84509288595533e-05,-0.1327279866770929,0.4534499081958849,9.838101684530152,0.0218433483763008,-0.0190219636826675,0.1634137114610746
164,1640,0.0411441871503209,0.0078595321605619,0.0381528301942117,0.0126683864218352,-0.051946348120733,0.3927199981595781,9.869445015126995,-0.0259039831150189,-0.0412477570685135,0.1296278268433549
165,1650,0.0654335666548237,-0.0114541050072594,0.0756360493208534,-0.0004452494171995,-0.2055166038526815,0.5906402246871811,10.427721951430886,-0.0354361858269689,-0.0252720602046305,0.1508190675746508
166,1660,0.0380745699064976,-0.0118440850984659,0.0395427856583334,-0.0142889402124662,-0.1506031844728278,0.578298714195338,9.472222336052202,-0.0127901754721299,-0.0431262535022612,0.1502456357936339
167,1670,0.0613947847667659,0.0027596042168371,0.059947220912965,0.0044645011573957,-0.1451085835990781,0.4955307837408779,9.75638827020329,-0.0242251653179432,-0.0400340578693381,0.1281142550815338
168,1680,0.0612426511016996,-0.0068461078039037,0.0493230586345747,-0.0142743419379285,-0.0015892628910819,0.4784855182630937,9.868623766275062,0.0138243635815011,-0.0233526302823336,0.1185861232440865
169,1690,0.058631734113176,0.0058967012821466,0.060082851200492,0.0133605653478177,-0.0662236098590253,0.5785713878234792,9.825699329389256,-0.0082267314662843,-0.0364229231635301,0.1957501664834789
170,1700,0.049259916415995,-0.0025968262513343,0.0407999078596796,-0.0066136613080241,-0.2409024320504536,0.5418481150388361,9.39450422280352,-0.0252579734595417,-0.0473989456194353,0.153595073512519
171,1710,0.0634667469500351,0.0116709971402562,0.0570764968764957,0.0142740260284716,-0.1701879497158888,0.3066372026207233,9.675101867643594,-0.023179904434827,-0.0206761559241415,0.1061726779688026
172,1720,0.0726669646086298,0.0076965450585624,0.0438048250583758,0.0149464731565688,-0.1822919586031325,0.519521523907789,9.665758620460991,0.0024498881806398,-0.0379115572725657,0.1742647296293452
173,1730,0.0593559157400302,-0.0102514182371922,0.0500719983150732,0.0174621516375966,-0.1269432216073079,0.509431087532445,9.73672370520569,-0.0103261459241887,-0.0509132807887278,0.176017052293725
174,1740,0.0602283406247709,-0.0170128142878802,0.0468116254252057,-0.0155136437383924,-0.0860539204266668,0.6018544509732522,9.402186358335912,-0.0088859012893122,-0.0185928820024677,0.1915359554496813
175,1750,0.0657680531406111,0.0165403366296289,0.0538968279496538,0.004620248831401,-0.0905324169034541,0.5930449690133726,9.742708031426062,-0.0257501678357662,-0.0258791785374508,0.1636129354894248
176,1760,0.054473344153199,-0.0012826122536934,0.0590678731303304,-0.0052667726773387,-0.1547787250038354,0.6371077640410044,9.412335470508369,-0.0196853013663311,-0.0409326487061585,0.16528262635635
177,1770,0.060640792462753,0.0023594445357821,0.036199348799206,-0.0001883358229012,-0.3096015392716459,0.3071750797828885,9.682267400230048,-0.0238612421277489,-0.0326797201550639,0.2006794743854867
178,1780,0.057111096241428,0.0026746353409024,0.0479750368101324,-0.0136572211474605,-0.2584870043464707,0.6005368256242889,9.791342703214992,-0.0281216973331116,-0.0238614724971829,0.1483854534721381
179,1790,0.0351063921513473,0.0086325817474695,0.0271855390986355,-0.0205825470167349,-0.1752578509941903,0.5713267117051156,9.475954436634789,-0.0286953416315853,-0.0255491180057008,0.1447430389746185
180,1800,0.0500358239181541,-0.0138789374943055,0.0312580418780223,-0.0012966489751876,0.118685175423322,0.4202968274877462,10.074598706545324,-0.0224118779351833,-0.0178330228736193,0.1907204774543478
181,1810,0.0480706915790652,-0.0170452372002563,0.0324409373169574,-0.0056435750702762,-0.1033208441159118,0.4964500159026525,9.45686378877965,-0.0306194297910196,-0.0283369118114024,0.1622243740494855
182,1820,0.0592372910125426,-0.0084148048672786,0.0542837710334965,-0.0056167746052357,-0.0699929710084215,0.4865592673363635,9.546942378470842,-0.0997556387098462,-0.0239089879348971,0.101902813539915
183,1830,0.0429252348042265,-0.0309062341678857,0.0386941002900911,-0.0005679157701564,-0.0625553484581079,0.4730439746399707,9.763767347297602,-0.0116806157286367,-0.0310602430355947,0.109903848032308
184,1840,0.0454653859326256,-0.0171318611530818,0.0411799279814267,-0.0026101596182681,-0.0452361522820491,0.4666371461821551,9.85309604861341,-0.0218279194953766,-0.0440259154502425,0.1475366964593213
185,1850,0.0245539235564184,-0.0317175513995472,0.0188502974764452,-0.0315661329397356,-0.3242824173929325,0.6363445629066936,9.466044109996444,-0.0384902286776676,-0.0236175106438836,0.0807228325346572
186,1860,0.0419919703540862,-0.0096678642044481,0.0363625810391265,0.0060886171952522,-0.2634158320573336,0.2927545264289107,9.92761598676695,-0.0544143019067975,-0.0173537595111103,0.1236166241667272
187,1870,0.0563269912332082,-0.0077223135248154,0.0407906094676127,-0.0136409343605664,-0.0952473321741229,0.4530135175449252,9.353473740547292,-0.0362201595831541,-0.0149325993025354,0.1857747035718022
188,1880,0.0456200602798472,-0.0072358072019161,0.0347926326029631,-0.011208799931302,-0.1576783307767625,0.448599347964682,9.7027191457866,-0.0060258689081602,-0.0442396312033575,0.1848665544812969
189,1890,0.0267003476192787,-0.0330912224219314,0.0235663539772821,-0.0200813323053596,-0.1757018320142516,0.5733259781451745,9.493210525711564,-0.0412094117526663,-0.0163742575340337,0.1421526719716863
190,1900,0.0274050842943495,-0.0310079375023855,0.0181387268073,-0.016942145700038,-0.1442652947442307,0.4851530357333445,9.41415727347119,-0.0164116890917624,-0.0367222435772075,0.1370936696703051
191,1910,0.0348266359581974,-0.0175067773108983,0.0304118113995473,-0.0184391070996049,-0.145728342835458,0.5400260691787969,9.744422094908598,-0.0372569641700444,-0.0268199928971993,0.197537288880919
192,1920,0.041661829701415,-0.0348001030171951,0.0304167666382184,-0.0167935745274343,-0.1272237112304541,0.4571816396914838,9.343701072632534,-0.0448313080429023,-0.0152220625173535,0.2181038365922655
193,1930,0.0133990762677772,-0.0329003013294221,0.0044655580981196,-0.0290707856887364,-0.1149777732431102,0.6321682621069779,9.948575430374618,-0.002284386725368,-0.0043036248490824,0.1355333156753505
194,1940,0.014081351450512,-0.0385746264473863,0.0175971292289352,-0.0250144019535828,-0.062074828618354,0.5407515344954421,9.800312216656897,-0.0647261610263478,-0.0097283160480532,0.2128844750143582
195,1950,0.0318526080285947,-0.0270247937634004,0.0260195711771089,-0.0253446454172685,-0.0685888795493098,0.4583115352312094,9.65908134937558,-0.0547383820089316,-0.0084415624683037,0.1332054405264523
196,1960,0.0160262924871954,-0.0373373930598004,0.0169904031851862,-0.0226087709770969,-0.1128263110611101,0.4953320963373243,9.779526298654856,-0.0091272836182843,-0.0162114230779813,0.1736881745960924
197,1970,0.0431159081486892,-0.0302833922887718,0.0256673097488726,-0.0366366188304751,-0.1571768646250744,0.5751900965587169,9.959561627508528,-0.0627342678593151,-0.0189756799292271,0.1338999002980667
198,1980,0.0271028996316939,-0.0189868420238686,0.0416460737921066,-0.0244893866259956,-0.1089162618504107,0.4440012646348995,9.78145062787764,-0.0535777188484141,-0.0166440940749375,0.1462697349274657
199,1990,0.0201860097002571,-0.0304475976777856,0.0092839997506045,-0.0475802522330557,-0.0944787503647707,0.5696883089647661,9.933268292420324,-0.024137843440081,-0.0169489015067252,0.1704152453701359
200,2000,0.0236373860945539,-0.02557178464938,0.0117838806608306,-0.0236898906859894,-0.101273092733455,0.7335580352418305,9.655350184463275,-0.0658444948948863,-0.0088705665685777,0.1272612014450458
201,2010,0.0370867038141774,-0.0208930374143917,0.0332431304602039,-0.0251274816764541,-0.1022003493373718,0.6471942930591957,9.497743677788078,-0.0755949877465564,-0.0226372983524004,0.1071269966802961
202,2020,0.0174653028953373,-0.0173222396668377,0.0311146455663636,-0.0299603022183668,-0.0570356361594464,0.5915318838974084,9.576592731852696,-0.0148013725045161,-0.0251267473381719,0.1750159675140694
203,2030,0.0221425784809045,-0.0434593717772511,0.028520186660224,-0.0279740950801678,-0.0411230963741309,0.4210178511981019,9.61582283724022,-0.0685415645127118,-0.0244494378055688,0.0983965031881977
204,2040,0.0230906577634077,-0.0638204049700472,-0.0028267857248851,-0.0587702667886297,-0.0612502904088671,0.4444446051606819,9.462902335907309,-0.0678805043340696,-0.0252065358298321,0.1769382114996356
205,2050,0.0136990747373452,-0.0496164798398375,0.0180294293125601,-0.0370664750830028,-0.3911188054230325,0.4569521251669541,9.459112312516645,-0.0735392777181966,-0.016121174071959,0.1472604103378023
206,2060,0.0279430779247042,-0.0455474362958713,0.0199965922963433,-0.028870104960143,-0.2099691864741172,0.3952716314265589,9.321788609939334,-0.0436502761876926,-0.0247133786606561,0.1363447051646486
207,2070,0.0307517896257614,-0.0208745676373248,0.0312853508112897,-0.015004855391258,-0.0054076322068549,0.4978373689130423,9.443742278470234,-0.0658913318097927,-0.0321397972083188,0.1451204297290967
208,2080,0.0387966845219766,-0.0249434985182672,0.0203039394246207,-0.0138480969025859,-0.0728140174656368,0.4851552546156888,9.75750518683328,-0.0298733493578305,-0.0046740726685742,0.1629815811803274
209,2090,0.0200245531184937,-0.0300449246287991,0.0224331790572799,-0.0412684616631892,0.0423707466122263,0.5486954236395386,9.661514386565065,-0.0554268323453413,-0.0004712875289719,0.1221522441900239
210,2100,0.0288662018287466,-0.0414922856690981,0.0316439111453936,-0.0346270115483626,0.0923081613672318,0.4735351694001463,9.405446659124156,-0.0778306494031569,-0.0181516403754979,0.1649338820450014
211,2110,0.0248504537542529,-0.0521150419547712,0.0411777327700419,-0.0330952249791502,-0.0151051882355639,0.472998567001939,9.4169524094454,-0.0461701758268557,-0.0046840332128366,0.1269944867838967
212,2120,0.0393617295727918,-0.0193912143054099,0.0212744871663654,-0.0229085723653054,-0.2493233904748963,0.5013563692902574,9.097974958116296,-0.0541630940142079,-0.0066867878660771,0.1398665208987194
213,2130,0.0387863576228448,-0.0246732564183173,0.0332919260193229,-0.0095491206441693,-0.1590943528534037,0.5178641839468968,9.570811391261168,-0.0450188086616346,-0.0158746340790346,0.1425722298390268
214,2140,0.0366960506850357,0.0006072510173722,0.0299895705087271,-0.0160114531347322,-0.0272190247413437,0.4904015547765963,9.302481976039324,-0.045979024747784,-0.0354025981009183,0.1395498685771591
215,2150,0.0364916607909241,-0.0215136845257961,0.0150643420513384,-0.0119688169473311,-0.1427237046519058,0.4569684858438099,9.174576807403044,-0.0549748040175014,-0.0089689898938722,0.1138319956570293
216,2160,0.0095961372570107,-0.0404607172976083,0.0324942184510876,-0.0137244304770124,-0.1498386254295534,0.4458319458451733,9.48660452769922,-0.0516405763011764,-0.0092181088031261,0.109830875420409
217,2170,0.0116820035876349,-0.0298621889072593,0.0359071194651101,-0.0036252093477143,-0.0787046433963533,0.4465378562578326,9.448088462118696,-0.0630431919492808,0.0023636957638531,0.130680479033259
218,2180,0.0405688137797945,-0.0162355240315328,0.0454421765768436,-0.0244798069009754,-0.2259467489232719,0.4408721084856756,9.396086592014534,-0.0700492345057529,-0.0198598339261278,0.1439363245226929
219,2190,0.0100437409254814,-0.0355430860573882,0.0105174166587825,-0.0342216574019767,-0.0945051123188983,0.531802581904224,9.60517502445516,-0.0512405027092094,-0.0188301634454152,0.102897765925838
220,2200,0.016584464526666,-0.023345777625463,0.032516518310126,-0.0182059400938401,-0.0384247616940613,0.3926043284289501,9.594136487915254,-0.0667828273823055,-4.254363968456826e-05,0.1438394678933714
221,2210,0.0101702381103003,-0.0340940028034066,0.0191931846700334,-0.0273350965951433,-0.0588038826285672,0.4458277268920738,9.828625313811138,-0.0692952179806367,-0.024073990159781,0.2081272213022098
222,2220,0.03744543465568,-0.0455772926285644,0.0257482466366344,-0.0167358745069522,-0.0554572844181643,0.4723841835319038,8.835262577971926,-0.0789102774238883,0.0135737864602775,0.1436717845629747
223,2230,0.0342012628873879,-0.0162143614904727,0.042012951334168,-0.0135276534738522,-0.1022000273291059,0.2361425520370048,9.86056763909017,-0.0357121899893743,-0.0185995642349024,0.0881967683641292
224,2240,0.0203917650829422,-0.0346416359942208,-0.0038048558214689,-0.0241017134116267,0.0329154880406379,0.4711953746483421,9.700721620252216,-0.0919592303204998,-0.0131717212492235,0.1112226223982916
225,2250,0.0272150979150315,-0.0277219943459525,0.0251642928473478,-0.014733229511479,-0.1228040820903865,0.3664875463564144,9.267669861878383,-0.1083409241287658,-0.0092577559740717,0.110382471014524
226,2260,0.0338361451717476,-0.0322591215564036,0.023701396100991,-0.0343004849451855,0.0848842149165615,0.4128305895115312,9.57907325232861,-0.0720105054633365,0.00357318022802,0.1939533699103288
227,2270,0.0284291882195939,-0.0211723136778847,0.0273539593614166,-0.0334209775944493,-0.0506195911863659,0.512069471579795,9.319873540237024,-0.0917592782111827,-0.0220460209379273,0.1290280674764349
228,2280,0.0233018847668242,-0.0303977374726387,0.0136138753360318,-0.0278666605946037,0.0285799170791089,0.5839628464277299,9.508294011313367,-0.0621143023365243,0.0112731836605295,0.1823955700587858
229,2290,0.0155636112664713,-0.0399419672291227,0.0140097905397936,-0.0257981952111874,-0.1385935992909769,0.4845250765246012,9.038782796239524,-0.1341162862449821,-0.0164573567837959,0.1097559653094173
230,2300,0.0115320792843032,-0.0493029136028621,0.0121820410781485,-0.0354065627414575,0.0007186341273137,0.4369386737139084,9.421386853683188,-0.0568835368708259,-0.0080253002217225,0.1606853089400994
231,2310,0.0270029975800514,-0.034326117298216,0.0143482594474316,-0.051763416503763,-0.0811938228038174,0.4516297039927416,9.448252561464994,-0.0891594261150877,-0.0079129055584269,0.1269029054560713
232,2320,0.0145849422295334,-0.0517262472313166,-0.0012278375943652,-0.0244277200580161,-0.0229423705394126,0.44829423299699,9.475854563019228,-0.0864011202894114,-0.0100332176903219,0.1345939178180476
233,2330,0.0366892575127856,-0.023310964882299,0.0097945116237179,-0.026688247324811,0.0040507967877085,0.2885520497977611,9.365057854815436,-0.1024247353253384,-0.0104835663732307,0.1416711464033598
234,2340,-0.0065662955174517,-0.0474528883382591,-0.0114964072080983,-0.0319341526673697,-0.0138303043067923,0.4462048251087521,9.269336690519102,-0.0643890877543921,0.0078276070839348,0.0881925594095738
235,2350,0.0272893645437176,-0.0649054572463471,0.0119630715865839,-0.0486739471003557,-0.0869557800743046,0.3049237603591032,9.516860973023528,-0.0393955677840898,0.0053198558625607,0.1253261957668123
236,2360,0.0028353513352551,-0.0504228937073003,0.00906129702019,-0.0415285580211365,-0.0130017225159035,0.477552937153623,9.625052079303693,-0.081643754602226,0.0021473966813015,0.1261527811724882
237,2370,0.0059497261601917,-0.0460578437113611,-0.0015495994166294,-0.0419499728807508,-0.0566667140679879,0.4665232600151909,9.613299694971252,-0.0542086360284409,0.0025646179557233,0.1664220069692865
238,2380,0.0035510363369415,-0.0354267157326507,-0.0090973291195463,-0.0450305936719788,-0.0972788761261779,0.2387339111164317,9.16192781514595,-0.0954008059672894,-0.0096229695057923,0.1416052432930136
239,2390,0.0109112261048221,-0.0615822751240884,0.003245824303689,-0.0307646612064148,-0.1411332972000938,0.4678072466585266,9.31555083378024,-0.0836779697753098,0.0003471881443373,0.1697307074590565
240,2400,0.0082570819969121,-0.0359427838028994,0.0071626663253215,-0.0416653836604749,-0.105722104511913,0.5797789246891307,9.50866171392427,-0.1103922759200217,0.00910108805562,0.1298473661465128
241,2410,0.0099285604537429,-0.0586296234901425,-0.0060665028361526,-0.0406047890186772,-0.1447646858556719,0.4160687520853661,9.104798895412998,-0.0795573768426935,0.0004210304521543,0.124561173457814
242,2420,-0.0069855628236121,-0.0552963764875337,-0.0209758039122344,-0.0492182481091967,-0.0208174442187524,0.3274234446355692,9.250836500751255,-0.1087837788639284,-0.0022100316559805,0.1147613013489779
243,2430,-0.0249284788488815,-0.0593471344395298,-0.0084202813637861,-0.0465879649973645,-0.0544392038121184,0.5723052840385732,9.11785516081019,-0.0948412415157421,0.0116236789863614,0.1336643744226783
244,2440,-0.01760097462827,-0.0554150974225606,-0.00350159260384,-0.0469966100403677,-0.1082991476723112,0.4339152242689543,9.25553282166284,-0.0860206362858395,0.0107130112436378,0.1299090760408482
245,2450,0.0046898158209838,-0.0616361621873677,-0.0170457092236862,-0.0676748564423699,0.0764356154829291,0.3194415343407538,9.354989925720163,-0.0902491566068923,0.0109804553675587,0.1329737602501692
246,2460,0.0025675886705722,-0.0427756536265233,0.0050339785587094,-0.0451967330816588,0.0854085752674595,0.4268748203496281,9.293863749763348,-0.0809165605730157,-0.0051939295607724,0.1139877677985523
247,2470,0.0025680188537127,-0.0555904647983896,-0.0079655955943351,-0.0419674599057051,0.1801385265658396,0.4375899308122561,9.32320724393952,-0.1034582438237243,-0.0110687796876851,0.1307177119942476
248,2480,-0.0205822430051161,-0.0628374565885426,-0.0242942401403064,-0.086159040079736,-0.0700816497865615,0.3963533289295958,9.352336226056252,-0.097095530599532,-0.0064564632403543,0.1193502741389426
249,2490,-0.0210582739717292,-0.0612317760633836,-0.0175567373264211,-0.0498216712471928,0.0090532471737717,0.4646761023693254,9.536605909938814,-0.0776946431843891,0.0014790617554147,0.1429740589068333
250,2500,-0.0082429030366176,-0.0457329525880895,-0.0297470511768404,-0.0362066674136765,-0.0112733482688075,0.3366094112304449,9.191763460925236,-0.1193805706284211,0.0074548560058291,0.1417035232382665
251,2510,0.0018258245573912,-0.0698333495901618,0.0042441702662673,-0.0562903647740185,-0.2644676325438493,0.3871386901934939,9.554437920378254,-0.0935986070696302,0.0020850048811518,0.1000806744316737
252,2520,0.0091472740062338,-0.0553161713347619,-0.0021365371087157,-0.0442611803579293,0.187945449022122,0.4228528627829245,9.39021716037136,-0.0830462056445618,0.0129598460375581,0.1586038818150062
253,2530,-0.0050488155776202,-0.0500269886055979,-0.0141600507405081,-0.0558091643383519,0.010888886527814,0.4741369437355777,9.129051955710358,-0.1162123219555534,-0.0030240092993016,0.1489767105039275
254,2540,0.0029311022400777,-0.0640089003230737,-0.0063861059521017,-0.0455330022615718,0.0571108411492653,0.3769986035824928,9.4913991802755,-0.0891238657549714,0.0088073481836229,0.1026097105058794
255,2550,-0.004556267718865,-0.0563738960132725,0.0041223271546291,-0.0463964910890641,0.1441773588548995,0.20894042963934,9.375488451402152,-0.075092559794786,0.0088688522290987,0.1139254727158483
256,2560,-0.0004338955719606,-0.0324394670493891,-0.0124437872149618,-0.0428290880596111,0.0561613563703391,0.3794200896329677,9.357118228729089,-0.0795034544059161,0.008361346021998,0.1132817732204232
257,2570,-0.0111401736156186,-0.0388965923641381,0.0085522882190471,-0.0392760593926929,-0.1072259832941252,0.341005312262699,9.11147754278145,-0.0820301652644333,0.0203951183098245,0.1417689078311004
258,2580,-0.0031904235426218,-0.0704679082410856,-0.0189489713741581,-0.0615624630725099,0.1460906513151856,0.3759577244377484,9.826653534063103,-0.1419362095584037,0.0046571518937724,0.1081992851896607
259,2590,0.0246934932421233,-0.0460183665021885,-0.0061162862102199,-0.0336321217732475,-0.041174559644625,0.4324396966876267,9.088433295854156,-0.0948964856357781,0.0193435098813249,0.1357140031589877
260,2600,0.0007540644949219,-0.0387995592042892,0.0029356896458768,-0.0372145708932842,0.0436635804902133,0.4942798095508428,9.361908057410965,-0.077559402603633,-0.0053329423424852,0.1012672000359915
261,2610,0.0190632363003107,-0.0434027529285867,0.0019474086289149,-0.0297276946123855,0.0890440118631468,0.2547472466026848,9.155801355640898,-0.0716219064308404,0.0034539603951381,0.0866344184451515
262,2620,0.0190877923858376,-0.0311033802143875,0.0026893945794462,-0.0308891164939153,-0.0134689615671807,0.4390203235967734,9.18879941699131,-0.1035121905592472,0.0145362280000323,0.1524881515559273
263,2630,0.0022117436433944,-0.0415742136572808,0.0106594381751741,-0.0296462469575633,0.0377527041132902,0.3830671742563829,9.44290874269834,-0.0974402225487337,-0.0005657440788196,0.1400743525611675
264,2640,0.020797927478758,-0.004233747019267,0.0062656205663348,-0.0339850784111094,0.0825750090071243,0.2474618695257234,9.26086248793838,-0.1059959912535336,0.0156934758910467,0.138530630208578
265,2650,0.0052391254211167,-0.0366763220401779,0.0010108146419307,-0.0351200982144155,0.0343454355715309,0.4017645919445451,9.185122625788969,-0.0960020508565854,0.0050782940333156,0.1148842938585789
266,2660,-0.003783913035823,-0.0379301546330279,0.0090322264405718,-0.0428093384360619,0.0876846486661488,0.357995972123876,9.457843193100103,-0.1071792983758997,0.0088520694858324,0.0881279222373575
267,2670,-0.0025589594372081,-0.0193916070320833,-0.0036219442520647,-0.0374636568811067,-0.1352651260812906,0.2342471302730399,9.45819290556717,-0.0898633086237884,0.0283203340354177,0.0817520565200515
268,2680,0.021764096483295,-0.0437842023952018,0.0148661672433141,-0.0201711694786675,0.0378173242034913,0.4813486112147367,9.446565494752056,-0.1010262984320342,0.0128923359211498,0.124810585693444
269,2690,0.0183264793939859,-0.0271659061627648,0.035855468161563,-0.0249700118316651,0.2244995507565236,0.4711934954876942,9.140330050256896,-0.1479049272777757,0.0266786468082524,0.1256716902524456
270,2700,0.0320727686220694,-0.0323240005107041,0.0022639331835779,-0.0398370746424216,-0.0219579281946939,0.4298270041713877,9.433107690339394,-0.1117787222036871,0.0162418667626224,0.1155354950294597
271,2710,0.0197480345160733,-0.03000922764355,0.0036002103182547,-0.038667805745496,0.1603737747550715,0.4331861263150238,9.36934002328821,-0.0739935296139279,0.0162325249724731,0.149488817700268
272,2720,0.0249093855125517,-0.0289427369410277,0.0061117904778252,-0.0090976048062886,0.1480179359208231,0.3986751138161897,9.36145696979435,-0.1163013825749304,0.021823795120305,0.0588647442761413
273,2730,0.010894828922148,-0.0541888652512057,-0.002734910484524,-0.0308509816348702,0.1479350619797652,0.2407788559894106,9.338193637507354,-0.114845223253279,0.0146522078792788,0.065037199997685
274,2740,0.0155287596444075,-0.0215104902786058,0.0078389081475793,-0.0141591772875293,-0.0114106473521258,0.4711104714329487,9.37209108441036,-0.0929923778286157,0.0128787687537879,0.1292327659733578
275,2750,0.0212228232593698,-0.032833424013043,0.0098338660681469,-0.0213248460361356,0.0812810635953054,0.4226568105314925,9.43401377683306,-0.1100542803731302,-0.0001748143049236,0.1044311449016418
276,2760,0.0004546034694637,-0.0250378452483224,0.0155891849558777,-0.0198767584192778,0.0615101778368627,0.2492734927070595,9.522185878956885,-0.0931637854983671,0.0030351835902219,0.109968488441602
277,2770,-0.0059412699475085,-0.0248715158551067,0.016385182092577,-0.0277689690786137,0.0438847808234711,0.237754074842286,9.65954807104622,-0.0807530166200908,0.0019224554961134,0.0683574064535068
278,2780,0.0244500956606002,-0.0328369474797326,0.0252300641690213,-0.027919156729207,0.1829204188354167,0.4928135934365131,9.013950469761925,-0.0558447832698611,0.0034555889938876,0.1068997615997242
279,2790,0.0130770920917518,-0.036321440491897,0.0088030523281981,-0.0329071991792978,0.035215762007513,0.5673955939634248,9.281372366155509,-0.1239779026163646,0.0312035376669524,0.0470744612478944
280,2800,0.0020564148611719,-0.0681663157967461,0.010334325205424,-0.0266944507851747,0.1414416428387967,0.3111416150238806,9.759036035209084,-0.1086485019192945,0.0168604100272998,0.1649936212408735
281,2810,0.0331670446161664,-0.0158130358272071,0.012246011166769,-0.0204883021557978,0.155952755565211,0.2574008647056086,9.363779945078988,-0.0996776614937525,0.0208032608215156,0.0854967190389508
282,2820,-0.0076138623685482,-0.0233375538774596,-0.0032419202236664,-0.031015104674686,0.0361009759950167,0.4068615330762228,9.42468364317221,-0.0898701522163656,0.0248900603917918,0.05094899902164
283,2830,-0.0075573101590369,-0.0504902438505722,0.0021261317594872,-0.0329797366194981,0.0323922019605086,0.2832738629032079,9.67193204447637,-0.0844189441484862,0.0120668909651332,0.095577984336647
284,2840,0.0070759127664457,-0.0430931235720793,0.0259683912355577,-0.0131555082865541,0.1543390753647193,0.3174758377079871,9.383367756902995,-0.096917530899364,0.0128266979569213,0.1146759001794216
285,2850,0.0052485605759266,-0.0390929160059332,-0.003145547476081,-0.0388685200423738,0.1355230936217765,0.4003317844323977,9.29895383682766,-0.0987482375892796,0.015899725113612,0.1162856731945931
286,2860,0.0042442691261012,-0.038912567942235,0.0073376833139574,-0.0429661030426473,0.2740465799981355,0.384350932827162,9.034036033978609,-0.0642063392745876,0.0167858147171802,0.0987163384058162
287,2870,-0.0045628933306141,-0.0401865584544101,0.0118815806601745,-0.0314856980551693,0.0126562932452257,0.2916455982061403,9.265531151070387,-0.0987537364236232,0.0178263397881526,0.0861252090102726
288,2880,0.0014983425883855,-0.0329738853679147,-0.008276820056993,-0.0510733457817013,0.1539805480712062,0.1628381733910793,9.25421039153533,-0.1185898496332692,0.0200116418150458,0.1451189677397772
289,2890,0.0209528262141995,-0.0276518505727034,0.0033455238395608,-0.0426666003150953,-0.0501029070594921,0.2227636057132259,9.149278777268506,-0.0801223700885959,0.0303904006742645,0.0078633636001901
290,2900,0.0188068804190482,-0.0531670144601628,-0.0027721294383699,-0.0333727737098062,0.2740544041633361,0.1938005067374014,9.578056144865952,-0.0931769848934239,0.0287943788183849,0.0880525153994629
291,2910,-0.0017896564888951,-0.0342316428699371,-0.0064833906646771,-0.0182973758111658,0.2454802462949837,0.2011486622753372,9.548551581678108,-0.0835323260499447,0.0178097631044437,0.1322891322574056
292,2920,0.0077640663672381,-0.0506276630722095,0.0201992280600643,-0.0361868920004771,0.0564410614686091,0.2737539666174605,9.343701527896089,-0.1250704036481729,0.0387855750447307,0.0443532861034219
293,2930,0.0050282736466798,-0.0500666463979826,0.0020302843772034,-0.027205348780477,0.2536124014618658,0.496457725510898,9.310702198018602,-0.0741163823199944,0.0049323267411439,0.0699009801060614
294,2940,-0.0173744019527814,-0.0447802967313932,-0.0082266268119363,-0.0399844793972784,0.1240696485063375,0.3019083384291656,9.39076038453642,-0.105912194773857,0.024151531744877,0.0937456191225299
295,2950,0.0067824057838264,-0.0347386807291147,0.0012723609415716,-0.0304152150993742,0.2326086665324864,0.3926792068507072,9.107203043156185,-0.1168589588055003,0.0227735616981916,0.0762435026709713
296,2960,0.0096642086093232,-0.0172345956704869,0.0063774052696469,-0.0453362116905302,0.248930352001808,0.4189033414526756,9.406501300772875,-0.1129886367319921,0.0018153761985969,0.0736019371126187
297,2970,0.0055593042270927,-0.0456887556454206,0.00336439027784,-0.0311345544641524,0.0529151068187887,0.2628951887672429,9.144990736154282,-0.0976759641340813,0.0258642395273102,0.1376304859001993
298,2980,0.0110873861637751,-0.0477602646692488,-0.0028761452679524,-0.032161263563692,0.0594989454439774,0.4119604157194798,9.61552228245234,-0.1147894632375006,0.0239853130267188,0.1326988346798939
299,2990,0.0070446828337151,-0.0363527407851146,-0.0127614203975991,-0.023827224800005,0.2018173778374034,0.3507772279439433,9.11615187621555,-0.1073727986548426,0.0482196232655886,0.1101369441055185
300,3000,0.0184472625739752,-0.040223691843792,0.0061792105232088,-0.0369873769574079,0.0501346352751344,0.2082367026656271,8.786943517348059,-0.096299572237184,0.0335405140737454,0.0704774440358895
301,3010,-0.0080231643721148,-0.0375135158963748,-0.0044770329825686,-0.0189794009296435,0.1663307120045324,0.1328721537250754,9.23197153856784,-0.0902269874189787,0.0083110839185776,0.1164777258712938
302,3020,0.0016265584047922,-0.0205270566466667,-0.0182792925393331,-0.015654746399586,0.0944312926401273,0.3453522434388054,9.375407304529404,-0.0630653937359027,0.0254096022380152,0.0926743547967395
303,3030,0.0142217029552701,-0.0224298546656997,0.0096641027484559,-0.0094128623992941,0.2436671259723316,0.4558613720253851,9.439745823551664,-0.0546673698746251,0.0345971978533755,0.0613622734382614
304,3040,0.0025283710823237,-0.0219041942003031,0.0169611831068137,-0.0281655582375799,0.2918288289722942,0.3544542594096609,9.211900975999765,-0.0887749671399928,0.0161719733771361,0.1051023774559353
305,3050,0.0305615890823232,-0.0253586834724812,0.00926336968148,-0.0186859090451259,0.2132629908543442,0.2675255320395689,9.22198812718974,-0.1018096733342459,0.0164901187188847,0.0960973538225797
306,3060,0.0150813932014567,-0.0073768878825368,0.0125237610231199,-0.0174884385104077,0.0818519149449451,0.237696925619692,9.505134210605393,-0.0958940066471501,0.031250623269678,0.1093398806160581
307,3070,0.0218899900701793,-0.0137413821084266,0.0069553573910512,-0.003761668040732,0.1993601099178773,0.4044007641618385,9.487731886489888,-0.1050212774385023,0.0397438206090544,0.0626338427336535
308,3080,0.0034287910244118,-0.0032450821713576,0.0206253782179429,-0.0156274408746732,0.2308862052024039,0.3977097442830359,9.305773218521963,-0.1045963243633601,0.0148941029505874,0.1379482035399142
309,3090,0.0405367166725621,0.0084848246628258,0.0335133382640228,0.0056455452528376,0.2486021944193659,0.1919123294994257,9.231515181142674,-0.1011252434059693,0.0315418965010806,0.1236252440504142
310,3100,0.011250346675775,-0.0110868382055878,0.0068231797734355,0.0032213447359613,0.123705602555905,0.3286863701627149,9.33744061652908,-0.0641693334239273,0.0333399989184954,0.0500974653081023
311,3110,0.0097204906508745,-0.0240461352367204,0.0082015873311185,-0.0167204675678627,0.1936389096613219,0.438398346185147,9.356662478462882,-0.0911902973401132,0.0281498325988448,0.0977739070606312
312,3120,0.0468827278531726,-0.018184714233283,0.0378535612439236,-0.0140224424719786,0.2910209480697537,0.4658074887958495,9.40154376103588,-0.0804830258883383,0.0185526938437383,0.1161715284028074
313,3130,-0.0116877095595077,-0.036398396217712,0.0240912477482375,-0.0120654831097406,0.2743936535381265,0.3828748956450417,9.15630008392145,-0.1003454098963361,0.013771590009302,0.0344045676581519
314,3140,0.0276956238413838,-0.0283763543377399,-0.0116151687081573,-0.0083673723241733,0.5343522427139341,0.2340290464187516,9.801972178274914,-0.1242823665199683,0.0446652305832917,0.0856520343072097
315,3150,0.0151831429678648,-0.0003721066095417,0.0204129000117571,-0.009254112964358,0.2124954825514642,0.4339912267308462,9.218316776843082,-0.0972917640156981,0.0282738195402329,0.079233715120832
316,3160,0.0160658621706867,-0.0163081135680352,0.0102874378253707,-0.0099347920059923,-0.0086217571521304,0.310090526249555,9.119970516458972,-0.0522939712053036,0.0386426706919087,0.0489304832869686
317,3170,0.0075953898303359,0.0033352227608092,0.032146499354098,0.0036085978398692,0.1531257962326777,0.2156326836831902,9.4248469781276,-0.1064158067460844,0.0492963236710449,0.1044858859280482
318,3180,0.0394642098649796,0.0096968975184682,0.0497335692635168,0.0237267010152784,0.2922441124370952,0.2335273702974341,9.446938373656726,-0.1070931901350861,0.0419447000723963,0.0774519095864178
319,3190,0.0350770786873777,-0.0140314317963165,0.0250414801968096,0.0001683317133868,0.230396097133788,0.1346484909709381,9.70662771975558,-0.0797041827166182,0.034829948362897,0.0464449550926717
320,3200,0.0291560627429908,-0.024606801777352,0.0349912500105402,0.0028487076553789,0.1757741118318876,0.2323447141249052,9.72959857436228,-0.0913423148622634,0.0396439342340395,0.0683962228645839
321,3210,0.0217238812271415,-0.0098735074484654,0.0159003499568843,-0.005897334361852,0.3152308328495128,0.3260619751503159,9.27093783196386,-0.0702476543335043,0.0259263683603784,0.0545148731019766
322,3220,0.0178931449908957,-0.0073061313723739,0.0190956041630849,-0.0178867945936396,0.2221906220965097,0.3007882351917309,8.974672803610122,-0.1044988836010983,0.0232064103121576,0.1044951923415251
323,3230,0.0270385082609479,-0.0185067043804521,0.0408634019280026,-0.0140706651998998,0.1195527125330461,0.275752263169137,9.22608681952706,-0.12626830713242,0.0231439347845858,0.0694280988083502
324,3240,0.0413520596121021,-0.0005408783702933,0.0552644455458658,0.0008853931230661,0.2009456543751365,0.2595677497690083,9.262138611841069,-0.0918437084280426,0.0404804207748359,0.1106756984063611
325,3250,0.0237303733592054,0.0097716732774962,0.0341163706067554,0.0011095621295895,0.2358852559174615,0.1585950185861707,9.567309087215564,-0.0949096712500704,0.0225925554630606,0.0673373044146466
326,3260,0.0365315051282744,0.0325340902743425,0.0330894050698139,0.0067320955893908,0.1575057013837486,0.1927308878349855,9.174582654897817,-0.115134168521352,0.0242026481361836,0.092835102995866
327,3270,0.0327805845511348,-0.0033367365655943,0.0383531892061202,0.0086170806224973,0.4128925661012957,0.2117324603283771,9.43192988641313,-0.0735684462883259,0.0379803592059751,0.1089518350614015
328,3280,0.0374045088910048,0.009108214259891,0.036868978387241,0.0107267944247704,0.073755071815434,0.2520981420539692,9.409986165338212,-0.0821096717070582,0.0260484899871632,0.1243038205864315
329,3290,0.030691870431346,0.0074124036573218,0.0352763787895147,0.0117166533644143,0.2172770739322255,0.0710904419180826,9.237346400691685,-0.1185767167510904,0.0407608383604621,0.0714706159247275
330,3300,0.0314946205300869,0.0090987590551174,0.0288306940283938,-0.0154939659884419,0.1999202501409751,0.371402454161746,9.457312481142475,-0.0698614483697877,0.0513778981076067,0.0610918086738658
331,3310,0.0284926844341046,-0.0001047794996025,0.0282243394722284,-0.0022043291775142,0.2901085845041961,0.2606891063210985,9.195890465703137,-0.0685332156964298,0.0426463291324581,0.0676184616792652
332,3320,0.0462245137407709,-0.0078898817856941,0.0299330031146558,-0.0110279861980037,0.3575877515238363,0.2098191356069522,9.231945255690972,-0.0782705274242117,0.0301381016385704,0.0372408551892029
333,3330,0.0286021339426847,-0.0201843085739627,0.0200315251800585,-0.0110764663048981,0.2718509062049211,0.0567222757067833,9.47931399592817,-0.1007333202605043,0.0375060040934272,0.0932379515215827
334,3340,0.0408154743527781,0.0146156522392739,0.0412821230513408,0.0037456474726677,0.2809182089778071,0.4416592972747906,9.471572813958751,-0.0828871604238256,0.0382432154896355,0.09441856200343
335,3350,0.0100644555208908,-0.0112498079460212,0.0139032412803805,0.0048213264894172,0.2544660006278166,0.1799192227352814,9.352855292192997,-0.0593533997723919,0.037048292156359,0.0151125571836559
336,3360,-0.0107387226877648,0.0104307544551329,0.0123464689459379,0.0130793277214414,0.3227114883931042,0.1613449170369288,9.511174498613268,-0.0685988734362641,0.0332251100304664,0.066590025998459
337,3370,0.0288187492234441,-0.0033916630620234,0.0502258267221578,0.013652757170598,0.2666538880975254,0.3536822315839776,9.947346341149755,-0.1017436986479245,0.0435393394976416,0.0159667501580088
338,3380,0.0095509422657423,-0.0187332696219371,0.0076781359176208,-0.0029972849362934,0.201316209157073,0.1657052181560217,9.529167355946438,-0.0879656240765442,0.0396670123116895,0.0658927928807292
339,3390,0.0371034531618594,0.013160548218916,0.0186183455642312,-0.007168022732832,0.0965391715897713,0.1519934108822434,9.327015986953406,-0.0992749315903987,0.0416822948748761,0.0815449115510043
340,3400,0.019096617598337,-0.0181930217235566,0.0089806000271522,-0.0019707912462432,0.079715281130039,0.3945749622817746,9.238348058393154,-0.0735373006813541,0.0313584036787778,0.049805625004119
341,3410,0.0280597877460376,-0.0100896832928193,0.0195576423131572,0.0023304393016664,0.2492192573480345,0.2655364528841467,9.18364788940566,-0.0768336550721294,0.0498846297576359,0.1150055863720179
342,3420,0.0006152805986201,-0.0081346080955614,0.027528528522343,-0.0180518821998566,0.0471687491039321,0.3235740342984404,9.609210646086217,-0.0209974733270263,0.0471057859407143,0.0712770272727403
343,3430,0.01779970501344,0.0096738510584498,0.0195896127208599,0.0064975197026088,0.2849166114704956,0.2425298814241071,9.465505191372104,-0.0374462145176632,0.0390740458460901,0.0578047541157488
344,3440,0.024032988061467,0.0015790466281128,0.0140184346687597,0.0050214911346643,0.3548948078635905,0.0795647727872829,9.434190543653742,-0.0614596258518343,0.0317982950576502,-0.0174068777543127
345,3450,0.0257201612213644,-0.015422742300573,0.0025470866170132,0.0009890845391735,0.2923460073621661,0.1702771418150025,9.4988565601008,-0.0669280297823057,0.0306210951663828,0.0629093341018551
346,3460,0.0222118768018837,-0.0012586491103915,0.0251679832330168,-0.0161782509714783,0.1032776516276858,0.06308684348088,9.460253989975596,-0.0969387057320267,0.0444807833800377,0.022632460091303
347,3470,0.0156556379034559,0.0145924367705105,0.0152882072512781,0.0075404063930628,0.3438812800524676,0.2592589329368596,9.369168370818937,-0.0631407669310934,0.043134675271897,0.0533092302609793
348,3480,0.0196033489420682,0.0039483508438387,0.0167838125040607,0.0024086919277757,0.3434146453404504,0.2138640303991924,9.325299913009555,-0.0589808710034877,0.04218604735655,0.0411790785781486
349,3490,0.0224840425558886,0.0077939848732154,0.0097655819057407,0.0175876196531156,0.3756001591763387,0.2046171115307926,9.604159176361843,-0.0741114110880963,0.030423843722676,0.0868720812700084
350,3500,0.0357126632943386,0.0010265887765608,0.0253963208924306,-0.0069811426739329,0.275106926934513,0.059099152392413,9.691532214104395,-0.0916012963919137,0.052927086047624,0.0542152898110056
351,3510,0.0261319971666311,-0.0036242876891344,0.0085798949555153,0.0120707524604853,0.3285343026247612,0.2046883185009641,9.711276413480604,-0.0654791619715049,0.0453823396762048,0.0823029768582316
352,3520,0.0164140861043658,0.0044722400521063,0.0300893948993466,0.0139303453734184,0.2107185176076505,0.1894933383180201,9.296808631390558,-0.0687539197339855,0.0303805203184482,0.0120749665955852
353,3530,0.0241870592954117,-0.0126934510017687,0.0429377114035136,0.0013638415343427,0.3247875475373431,0.1031144589646872,9.634318531401648,-0.0892350432670391,0.0484320730329056,0.0352976442785964
354,3540,0.0117166838801115,0.0016062335999133,0.0188556311571937,-0.0084333265343148,0.4301632198964634,0.1905901396643966,9.758091933103907,-0.0917913410041573,0.0518083475119275,0.0469530964204391
355,3550,0.0421358982839224,0.0156754841547441,0.0220141614898983,0.0116607713280298,0.129073323717862,0.2022753314310712,9.457209949682358,-0.0550393719071466,0.0556885183517153,0.1112390523329145
356,3560,0.035695128517089,-0.0008178869550261,0.0278082442909216,0.0094877810199325,0.1791331116638599,0.0576893919875426,9.462628943827362,-0.0412812396112466,0.0558053258472132,0.0289616950477125
357,3570,0.029546180719134,0.0245519833962347,0.0298565643283852,0.0136839122222745,0.3142437830849702,0.2753968076954637,9.549871943895186,-0.040619147440645,0.0246998111778353,0.03547179281174
358,3580,0.0215381573705773,-0.0052773275255842,0.0298608588058107,0.0024656817292953,0.2252463561881039,0.2637006082357798,9.365946916810888,-0.0628975034023774,0.0453270401998705,0.0482820585569868
359,3590,0.0360249709109152,0.010717570716835,0.0164865287650716,-0.0036851616314816,0.2011528872860792,0.1606707299368927,9.22781488312674,-0.0388809823137474,0.041055310613404,0.0308510209762689
360,3600,0.0367393943842521,0.0049452797783215,0.0607432807122041,0.0048842666971563,0.3742946732575808,0.0662575306553787,9.644257866673744,-0.079282494157774,0.0418430489351784,0.070413545472537
361,3610,0.0261132663520991,-0.0110315358671893,0.0262078138858964,0.0152959179073123,0.2650518779783938,0.2082292526054235,9.735789374891604,-0.0546303021042265,0.050744061723748,0.030032739923279
362,3620,0.0382205891053623,0.0281771505285354,0.0247457186962685,0.024944503882553,0.2313606652690681,0.2714608665697035,9.803255635155526,-0.0399083305651625,0.0356859994417503,0.0720754857644914
363,3630,0.0406184788002188,0.0076520945517212,0.0258950751813687,0.0128721333973881,0.2582522642494493,0.3119380099310501,9.748039546979577,-0.0587675846739777,0.0539941957831487,0.0585763355820811
364,3640,0.0286881769955964,0.029636827126856,0.0383008766086868,0.0308935720057506,0.2937936912891958,0.0150033922030381,9.607576474807296,-0.0575481086094408,0.0581963890742401,0.0010115321438198
365,3650,0.0260060008700087,0.0213115133278601,0.0272069446760631,0.0313364773450818,0.4254325437606411,-0.0377075275576543,9.648693210268696,-0.0954171221184325,0.0630203710995805,0.0816736359613383
366,3660,0.0427472920886432,0.0338180581018947,0.0379741031918329,0.001612495935686,0.3486875844826568,0.2098734752098852,9.180486208714584,-0.0905264407044649,0.0553445031605085,0.0077990072915991
367,3670,0.0259354561835474,0.0296992980078419,0.0522836071745147,0.0372956292244813,0.2443141995307704,0.0709670274208726,9.463235348168872,-0.0838903457493901,0.049544528851438,0.0245896259512633
368,3680,0.0513072940741274,0.0253089637760274,0.0335865627361703,0.0108594753062975,0.3327708297887733,0.0059108255028257,9.64263027987822,-0.032185556393098,0.0218865542911652,0.0464823531514749
369,3690,0.0347728030707432,0.0313701790523836,0.0491655949951582,0.0298691636648567,0.2593246423173038,0.0690806424923304,9.567344553644093,-0.0464317534435314,0.0476595597048023,0.036923497300237
370,3700,0.038603290738848,0.0168743830021108,0.0312093816859697,0.0309045468840671,0.4764809213018942,0.2699244028809299,9.945994905741298,-0.0601460982566343,0.0291533021863174,0.0451854369420062
371,3710,0.0475632783797062,0.0334943146668123,0.0294542448032198,0.0267280749582152,0.116685846313138,0.2158061439681866,9.772204397029288,-0.0591404949712986,0.0505165704753553,0.0441085713381754
372,3720,0.0106229142968801,0.0286294643461971,0.0268613168905639,0.0220044255522736,0.4880405660688455,0.0724104556446939,9.919606728417095,-0.0411373361358455,0.0391996011716292,-0.0127070382016699
373,3730,0.0255696380390121,0.0328361450310528,0.0265655094742753,0.0079805158426758,0.2887453994566407,0.1690687105826185,9.534526184967168,-0.017052528957838,0.0614430829405991,0.0080435609069426
374,3740,0.0327168521978307,0.0213068872137246,0.0575985424244979,0.0397902200417633,0.4263805811017587,0.0901199226265039,9.694729162788846,-0.0220175280507394,0.0506088391180119,0.0464264590176716
375,3750,0.038278357368852,0.0348161271020822,0.0306633329277664,0.0276906925691138,0.2603771294838662,0.2032922387784727,9.483575154633703,-0.0663169297965681,0.041182993274163,0.0396637119175016
376,3760,0.0268826185221049,0.0262800865913272,0.0413437222758476,0.0320190497353278,0.1726239017982102,-0.134780251374846,9.414247975393511,-0.0397246856281552,0.0481085315313361,0.0295111623880983
377,3770,0.0261990603505339,0.017278829396791,0.0160623701847878,0.0365125776079037,0.3133417675233739,0.1677966066251309,9.952793401966886,-0.0247293150221883,0.0625749671570206,0.0168062543704664
378,3780,0.0302477545358855,0.0248402026352206,0.0091157606213287,0.0134619213884185,0.4138276838466832,-0.0146203927992919,9.961718507667296,-0.0326026603354152,0.0508230154302671,-0.0085929128087181
379,3790,0.0310172091918977,0.0213252004321847,0.0450326174281781,0.0171748586429849,0.4057243292714626,0.1269221839401811,9.902444912756431,-0.0187567065312711,0.036018728132471,0.0166653746289604
380,3800,0.0289694409959777,0.0166193443418376,0.0161784844552325,0.0140534460071385,0.2216668339316537,0.0886740226120452,9.893366095271745,-0.0522419502443358,0.0441804097604651,0.0185133559205142
381,3810,0.0156574517532275,0.0101695511655083,0.0197295858081862,0.0141432343050399,0.1375436582147186,0.1494351714353972,9.69226210643806,-0.0267523761468007,0.0360336377489581,-0.0248456235144529
382,3820,0.0138346172611217,0.0287839789166605,0.0186783517471837,-0.0017213484361005,0.0238787613200396,0.2351762781933104,9.39552042591682,-0.0180788775483958,0.0508920212892668,0.0417441656076193
383,3830,0.0359937170727778,0.0160039784615121,0.0208716153895079,0.0166596963257595,0.2365740027508851,0.1471186827985068,9.604537022919908,-0.0275073659809789,0.0387013805779954,0.0191835463366732
384,3840,0.0201709970575052,0.0207372940337061,0.0284905912775927,0.0197668448276931,0.3114480955474641,-0.0596685414396194,9.400826609574471,-0.0136095939106772,0.0389658140589414,-0.0182405285288238
385,3850,0.019611598069673,0.0066444434242177,0.0094394592428175,0.00766964802693,0.0831644484449477,0.2806440038565724,9.832374435476266,-0.0397982307839936,0.0487337722835727,0.0028214511361193
386,3860,0.0127824277877263,0.0086778417417301,0.023773174393264,0.0067385015943866,0.4041342725434654,0.1179186136705683,9.283290496414777,-0.0093889236468759,0.0750096893495926,0.0136179336977984
387,3870,0.0047717948714019,0.0040261327798314,0.0097914333465904,-0.0016739289757507,0.2807539304601469,0.1627741512486313,9.393372654608925,-0.0693230311004505,0.0424216725424028,0.0889605552415132
388,3880,-0.0012521325976457,0.0098137851230218,0.0076357341524103,0.0048788113909051,0.2727174236137483,-0.087731504962311,9.554345911470808,0.0336262292719154,0.0570763116737018,0.0331499204976686
389,3890,-0.0012521325976457,0.0098137851230218,0.0076357341524103,0.0048788113909051,0.2727174236137483,-0.087731504962311,9.554345911470808,0.0336262292719154,0.0570763116737018,0.0331499204976686
390,3900,-0.001120097918402758,0.006045427506199873,0.006482651759624736,0.002156549218500058,0.247855360410182,-0.0634491727746907,9.548304006592172,0.026072427577966312,0.05297243023756794,0.03676328880983656
391,3910,-0.0009880632391598158,0.002277069889377946,0.005329569366839173,-0.000565712953904984,0.2229932972066157,-0.039166840587070414,9.542262101713538,0.018518625884017224,0.04886854880143408,0.040376657122004514
392,3920,-0.0008560285599168737,-0.001491287727443981,0.00417648697405361,-0.003287975126310027,0.1981312340030494,-0.01488450839945013,9.536220196834902,0.010964824190068133,0.044764667365300215,0.04399002543417248
393,3930,-0.0007239938806739316,-0.005259645344265908,0.003023404581268047,-0.006010237298715068,0.17326917079948312,0.009397823788170168,9.530178291956268,0.003411022496119045,0.040660785929166346,0.047603393746340435
394,3940,-0.0005919592014309895,-0.009028002961087835,0.0018703221884824837,-0.00873249947112011,0.14840710759591683,0.033680155975790466,9.524136387077633,-0.004142779197830043,0.03655690449303249,0.05121676205850839
395,3950,-0.00045992452218804737,-0.012796360577909761,0.0007172397956969213,-0.011454761643525154,0.12354504439235053,0.057962488163410736,9.518094482198999,-0.011696580891779135,0.03245302305689862,0.05483013037067635
396,3960,-0.00032788984294510526,-0.016564718194731688,-0.00043584259708864294,-0.014177023815930195,0.09868298118878424,0.08224482035103103,9.512052577320363,-0.01925038258572822,0.02834914162076476,0.058443498682844305
397,3970,-0.00019585516370216314,-0.020333075811553615,-0.0015889249898742054,-0.016899285988335237,0.07382091798521795,0.10652715253865133,9.506010672441729,-0.02680418427967731,0.0242452601846309,0.06205686699501227
398,3980,-6.382048445922103e-05,-0.024101433428375542,-0.002742007382659768,-0.019621548160740278,0.048958854781651656,0.13080948472627163,9.499968767563093,-0.034357985973626395,0.020141378748497037,0.06567023530718022
399,3990,6.821419478372109e-05,-0.02786979104519747,-0.003895089775445332,-0.02234381033314532,0.024096791578085364,0.15509181691389193,9.493926862684459,-0.04191178766757549,0.016037497312363175,0.06928360361934818
400,4000,0.0002002488740266632,-0.031638148662019396,-0.005048172168230895,-0.025066072505550364,-0.0007652716254809011,0.1793741491015122,9.487884957805823,-0.04946558936152458,0.011933615876229313,0.07289697193151615
401,4010,0.0003322835532696053,-0.03540650627884132,-0.006201254561016457,-0.02778833467795541,-0.02562733482904722,0.20365648128913247,9.48184305292719,-0.05701939105547367,0.007829734440095444,0.0765103402436841
402,4020,0.00046431823251254743,-0.03917486389566325,-0.007354336953802021,-0.030510596850360446,-0.05048939803261354,0.2279388134767528,9.475801148048554,-0.06457319274942276,0.0037258530039615823,0.08012370855585205
403,4030,0.0005963529117554895,-0.042943221512485176,-0.008507419346587585,-0.03323285902276549,-0.0753514612361798,0.25222114566437304,9.46975924316992,-0.07212699444337184,-0.0003780284321722796,0.08373707686802001
404,4040,0.0007283875909984319,-0.0467115791293071,-0.009660501739373146,-0.035955121195170525,-0.10021352443974607,0.27650347785199336,9.463717338291284,-0.07968079613732093,-0.0044819098683061415,0.08735044518018797
405,4050,0.0008604222702413738,-0.05047993674612903,-0.01081358413215871,-0.03867738336757558,-0.1250755876433124,0.3007858100396137,9.45767543341265,-0.08723459783127002,-0.008585791304440003,0.09096381349235594
406,4060,0.0009924569494843157,-0.054248294362950956,-0.011966666524944275,-0.041399645539980615,-0.1499376508468787,0.3250681422272339,9.451633528534014,-0.0947883995252191,-0.012689672740573872,0.09457718180452389
407,4070,0.001124491628727258,-0.05801665197977288,-0.013119748917729835,-0.04412190771238565,-0.17479971405044498,0.34935047441485423,9.44559162365538,-0.10234220121916819,-0.016793554176707727,0.09819055011669185
408,4080,0.0012565263079702,-0.0617850095965948,-0.0142728313105154,-0.0468441698847907,-0.1996617772540112,0.3736328066024745,9.439549718776744,-0.1098960029131173,-0.0208974356128416,0.1018039184288598
409,4090,0.0012565263079702,-0.0617850095965948,-0.0142728313105154,-0.0468441698847907,-0.1996617772540112,0.3736328066024745,9.439549718776744,-0.1098960029131173,-0.0208974356128416,0.1018039184288598
410,4100,0.0087364695098014,-0.0562954798988458,-0.0073133373184912,-0.0484722639170685,-0.2885743873022593,0.3252354104996783,9.158478865059172,-0.0887010390457034,-0.026897420494403,0.0387369279952275
411,4110,0.0170855057425178,-0.0355370797828921,0.0019665335624299,-0.0293434029891265,-0.1954793299470611,0.2938106366228625,9.151614065936268,-0.0626840059793613,-0.0105925765046603,0.0506238988616427
412,4120,0.0194550190199058,-0.0544530968054487,-0.0122414945951983,-0.0317621367028692,-0.2219647682183852,0.2159030463433867,9.2759145699869,-0.1213437903400476,-0.0143256331940503,0.1151204631441039
413,4130,0.0081152732457398,-0.0502095759383793,-0.0154852121855819,-0.0314968954573325,-0.2399849794489041,0.2625952768440089,9.436300035434051,-0.056239644107173,-0.033026785888693,0.0409240008747928
414,4140,0.0048245508420062,-0.0732687910840892,-0.0202032300962569,-0.0359741827381633,-0.1981053599156143,0.20293049260069,9.447836748801352,-0.100348292825359,-0.0253407353313537,0.0666084720225736
415,4150,0.0392624951654979,-0.0304658479463235,0.005189593439789,-0.0147056843010241,0.0191520585858921,0.2428090150561539,8.979104855121191,-0.1127815809571435,-0.0343186191164451,0.0727866331602347
416,4160,0.0263388425051985,-0.047068247599131,0.0146015474228981,-0.0292316640837319,-0.1493891465739584,0.3316102399602167,9.178784001322189,-0.1020019920948695,-0.02698927970331,0.0671199916877692
417,4170,0.0133511005695215,-0.0430139315893641,-0.0102352804651266,-0.0478379692499777,0.0513438996011305,0.2409860219020933,9.066248765520148,-0.0772266325136921,-0.0102988677423862,0.0505972455783792
418,4180,0.009011583617629,-0.068934615602003,0.009639004820455,-0.026349632406783,-0.2765048072039324,0.1571065271221277,8.914332306004315,-0.1214911083232085,-0.0255138779412518,0.0831133874687055
419,4190,0.0310765117185431,-0.0222549895530925,0.0061236636464953,-0.0378323256119231,-0.2326566590478559,0.2231151293568188,8.98303922441744,-0.1099602464098934,-0.0224264736722483,0.0641493008186159
420,4200,0.0233018702824487,-0.0414534194628422,0.0046110481666593,-0.0198596110019891,-0.3268843677954699,0.126284276339994,9.240270310496683,-0.1200741508370603,-0.051489904709538,0.0449862192488778
421,4210,0.0286433378718892,-0.0377461767555229,-0.0110775322143888,-0.0359421391293437,-0.0660330155273393,0.246132903016557,9.119599692885055,-0.0493522878550896,-0.0170087522614972,0.051079660697388
422,4220,0.0266720595400296,-0.0268763914587194,0.0050227166452615,-0.0253517815960702,-0.1363814266391028,0.3440910251778689,9.549203282928548,-0.0791643347200242,-0.0153165559803219,0.068374295448648
423,4230,0.0146852648029294,-0.0344591959683014,0.0258027639531627,-0.0079593317875639,-0.2558180228531485,0.2083625562624416,9.248941108512712,-0.092619173018285,-0.0165617831018524,0.0790645528515623
424,4240,0.0018782525826103,-0.0125038077333286,0.0040834472420554,-0.0156314014537963,-0.0965581721294591,0.1836379949490214,9.212529114075789,-0.1219007878651345,-0.0232840607932935,0.0366256673444655
425,4250,0.029733473732424,-0.0179085739364734,0.0169114577629608,0.0006003564601614,-0.137359424035825,0.2683905066055997,9.16078320779396,-0.0959771567671061,-0.0295877665689406,0.0541435805869085
426,4260,0.0315230491471527,-0.0258514028846638,0.0168296051997476,-0.0083589857787013,-0.1875477865939373,0.1714427232714592,9.40420921387507,-0.0702251727843457,-0.0316873382481751,0.0624036984561896
427,4270,0.0263679017991547,-0.0139361631521602,0.0083178874939821,-0.0028604836759333,-0.3725323091579975,0.3233670447447718,9.460961730852796,-0.1051502616333756,-0.0282706241653781,0.0026417429812824
428,4280,0.0458196244660708,-0.0137904174336395,0.0370656166517401,-0.0194134589668215,-0.2284005447411875,0.1939441532756186,9.219768080534871,-0.0832738593119047,-0.0281527679945487,0.0548830228864713
429,4290,0.031707952125777,-0.0207428685659116,0.021300056544265,-0.018073524552067,-0.2647416520596901,0.321908272221317,9.240591702750583,-0.0864224264850137,-0.0214804028786446,0.0371074812263865
430,4300,0.0526633118954265,-0.0260879565409515,0.0310446498595919,0.0078138943779747,-0.1055489555780769,0.1964540220657257,9.604363474257672,-0.0996172972652503,-0.0337082186559403,0.0810662865506571
431,4310,0.0579936686630203,0.0030636635343203,0.0331109669466209,0.0031732128574254,-0.0651078530878318,0.1771671107666126,9.350473609579671,-0.0874927577904947,-0.0428466440106739,0.0357762358030235
432,4320,0.0242197223594868,-0.0286350025150057,0.0075896753159496,-0.0216888882259817,-0.1999802135253941,0.1020511884426284,9.503019534666608,-0.1146638841313286,-0.009699667409157,0.038384524836736
433,4330,0.0316964288292241,0.0056114047087319,0.0359618252582049,0.0131612596339797,-0.2962382195947779,0.1886599819509634,9.52163423995766,-0.1216771778399913,-0.0477764570066445,0.0344231987801766
434,4340,0.0415325763820136,-0.0032111782396258,0.0120418228382087,-0.0038682679957503,-0.2635688641386602,0.2908370538126761,9.58571945200388,-0.1072926861005098,-0.0417868828516449,0.1036825540038404
435,4350,0.0419078092112468,-0.0060235515240392,0.0347579498469602,0.0009560417981234,-0.0862776481566792,0.3642486349735261,9.485697480258027,-0.0885994834967256,-0.023419363251256,0.0260738984808603
436,4360,0.0121206805744738,-0.0230626771951402,0.0322170318431228,0.0107327172142886,-0.3163457468752813,0.1374583386336418,9.344766136911012,-0.0691774570610251,-0.0138364651771929,0.0490315329360273
437,4370,0.0607638629116534,0.0031173020576263,0.0461316665439856,0.0216434258580195,-0.1990394938604497,0.290434548142421,9.462856875367574,-0.0813642501431519,-0.049957697745169,0.0641986154079509
438,4380,0.066249793029121,-0.0012711710620414,0.0269844865010411,0.0078967099283984,-0.2030531401175455,0.240989031140249,9.580970155297557,-0.0850736334356045,-0.038282561614885,0.0415127507559332
439,4390,0.0628072104266919,-0.0099560491716914,0.0545583557631536,0.0293934471143377,-0.0864712300658918,0.2814417286108167,9.599327827931056,-0.0992171246073701,-0.0394582525121221,0.0389423937849558
440,4400,0.0495357854093226,-0.0018280506188536,0.0256135023383699,0.0210841032777475,-0.2702396064993745,0.2446046513328729,9.1405832820835,-0.0718497738155085,-0.0396531254887509,0.0583010673495036
441,4410,0.035345283082542,-0.0242752960984915,0.0164033195627497,-0.0134745668414352,-0.3709036617523994,0.2070340378636832,9.448464981227325,-0.0819898884821358,-0.036843342127711,0.0284798830446401
442,4420,0.0443504709380225,0.0007775900914249,0.0425941676068346,0.0013503126959378,-0.2140428554817863,0.3720252216628662,9.466995761937811,-0.0666131494083594,-0.0309741546823978,0.05580556839648
443,4430,0.0318993712848575,-0.003108359490777,0.0252497671930463,0.0180491012748689,-0.3391191317183582,0.1553027150938648,9.065555943050876,-0.0725997314807245,-0.0340670665233103,0.0371336035283658
444,4440,0.0486867245327456,-0.0022168083538298,0.0332821857809551,-0.0041362236048977,-0.2141469257474285,0.2082595053564501,9.650141724432258,-0.0971311932261742,-0.0436873832522413,0.0706074404571212
445,4450,0.048044080261255,-0.0181852605214128,0.0079671423682487,-0.0093074862680798,-0.3343838202318043,0.2046456732332428,9.217743763387002,-0.0974126731553584,-0.0489626766602554,0.063274716036281
446,4460,0.0299038010606892,-0.0109934355898318,0.0140506702456329,0.0008715508548955,-0.171471981865549,0.2159384981124077,9.333359192753298,-0.0643144895066954,-0.0522144930467125,0.0532591731334373
447,4470,0.022034226705183,0.0050402403078301,0.0362288734667014,0.0083747655280425,-0.1309765506475083,0.3199155700057709,9.519137672608233,-0.1162199091536481,-0.0374810219937581,0.0464978753936588
448,4480,0.0424918653501323,0.003775664000673,0.0429838764053551,-0.0068843141776168,-0.3037063860382819,0.2553880185435588,9.610401940491055,-0.0859802807938571,-0.0357433857205158,0.0611563912243407
449,4490,0.0362860926079618,0.0020801035443747,0.0252749534151746,-0.0009739828298407,-0.1745481047929143,0.1700712747458821,9.592278158082616,-0.0792642413100317,-0.0382713503035743,0.0747510211359644
450,4500,0.0300679286304567,0.009170240697348,0.0484722269107418,0.0250879961452526,-0.3456190985433068,0.159393008729974,9.420411205682214,-0.0602610784510295,-0.0573027120450461,0.0422442148116364
451,4510,0.0304600620737092,0.0008452143463888,0.0081474326663512,-0.0023266585624003,-0.1981235180324188,0.1951324961994213,9.503308614562458,-0.0852085215667081,-0.0329900468363591,0.0591109568465877
452,4520,0.0238094193288825,-0.0215834272153972,0.0170411298211479,0.0076262321832195,-0.3769691194713186,0.256216444352766,9.381228669278691,-0.1065041588215341,-0.0347485256935616,0.022005595730882
453,4530,0.0170479731006371,-0.0119860359300976,0.0245228325759377,0.0057532114979556,-0.44077780941365,0.3227079160564619,9.323568815624062,-0.070232872378052,-0.0450691913586643,0.0637234771666559
454,4540,0.040897514555478,0.0105251247512146,0.0421555850458838,0.0099733165210475,-0.2095314143002536,0.283128134412361,9.3264343427044,-0.0761262840386954,-0.0473341655385585,0.0643352663277778
455,4550,0.0192331981304858,-0.0243417227781817,0.0097021367081478,0.008788002540569,-0.0174060476487877,0.3154411471864859,9.394135542951677,-0.0587221912313537,-0.0403909721046349,0.0338444061485766
456,4560,0.0294111266315412,0.0044882905573564,0.0069729717771613,-0.0105651730994837,-0.4288068870160464,0.2613630708465494,9.301772705001962,-0.0623721921570987,-0.037595482592127,0.0092589149209656
457,4570,0.0195558495977839,-0.0127770869803134,0.0166332990297409,0.0007706426760336,-0.1643472432913379,0.2888022042077826,9.21582261628875,-0.0600208129813576,-0.032401084754349,0.0389794066124738
458,4580,0.0294003860700743,0.0126466594545645,0.0195367172261264,0.0168759337858015,-0.2054956777917725,0.1838525983847231,9.632320439525866,-0.0719737069403225,-0.0438086304341379,0.0556185009021649
459,4590,0.0194872887881085,-0.0211519085347547,0.0065898763876807,0.0009944444673767,-0.3052664539370674,0.1856746732322207,9.340396595216363,-0.082217328992084,-0.0325490966523354,0.0334185624172871
460,4600,0.0332088632031253,-0.0027963396285066,0.0133994265428451,-0.0113387120917183,-0.171844134973099,0.129722357176277,9.000457783198657,-0.108897507711234,-0.0326540241840638,0.0263696643278453
461,4610,0.0307286475546232,-0.0075935875580793,0.0255057192545311,0.0132491523699957,-0.2822880187541222,-0.0841683163543986,9.622720554952847,-0.0645671493494421,-0.0374150832062002,0.0084259635843783
462,4620,0.0099860262199618,-0.0242288257486282,0.0182326642596375,-0.0153824577580643,-0.2161574319049147,0.2797240762806576,9.466418434707546,-0.0753735177814787,-0.0572813991980317,0.0353332729487542
463,4630,0.018587658313967,-0.0128568541834069,0.0224521890099267,0.0199390738213095,-0.2772291821363641,0.1420284707570783,9.585074988468293,-0.0685249797880181,-0.046455429327912,0.0409382466959644
464,4640,0.0147823508897507,-0.0166696586338048,0.0174351652375731,-0.0081938912677707,-0.343421330998635,0.0696343605369212,9.576358353053456,-0.0684912455081749,-0.041268241088651,0.0483066839086128
465,4650,0.0280591612892491,0.0012442000939859,0.0357467252408175,0.0131233157927781,-0.2312488205626191,0.2994991105681986,9.391641994154428,-0.0612379375317844,-0.0518871255804606,0.0551075966842307
466,4660,0.0432768093311266,-0.020108532652269,0.0249492422632191,-0.010493833303228,-0.3501687346604531,0.2475669055077486,9.355498396138168,-0.0403729896054203,-0.0492088485827353,0.0222181803854945
467,4670,0.0336906119388064,-0.0060471914985527,0.0095926768791091,-0.0119032891547137,-0.1533476468065495,0.2091019971991149,9.276256610964792,-0.1151939728570371,-0.0273211099943076,0.0573843915283323
468,4680,0.013796204458257,0.0017210899322837,0.0105175942205812,0.0045099889746904,-0.2745120784954224,0.2467321727546058,9.362071568601223,-0.0444002508394168,-0.049415561654052,0.0565979982784954
469,4690,0.0463957037828049,-0.0085520913983682,0.0405350143115989,-0.0131369223215326,-0.3326874497334728,0.0251215650609526,9.65418351940897,-0.084561062148354,-0.0185923174997526,0.0150022774531682
470,4700,0.04812580254786,-0.0121889377891013,0.0161797523233687,0.0119461723215414,-0.2797341109685809,0.0674545816311466,9.384527817731165,-0.0742343754022512,-0.0371099205502737,0.0459627823750433
471,4710,0.0377327545493246,0.0041349460535407,0.0381176179265952,0.0057084816759034,-0.2034516347262201,0.1593690967162724,9.703093461084078,-0.1042338659815922,-0.047371790322938,0.0549729641027855
472,4720,0.0245890278323971,0.0007443237380821,0.0142938848697297,0.0056552136437717,-0.1307567587918847,-0.1076917563731049,9.255357496343702,-0.1060449203966225,-0.0396808606540041,0.0561552221134707
473,4730,0.0364471170661829,0.0151193141624687,0.0263966798941547,0.0128820628529429,-0.2820304478887316,0.032317482319686,9.332775076082994,-0.0779309424717393,-0.0278558710184482,0.0187403566061554
474,4740,0.0294714250529555,0.0006364008160671,0.0394382730908503,0.0143386852757556,-0.2951946817773814,0.0522556388627096,9.14920216380224,-0.0211635354897116,-0.0295613269743034,-0.0046538818949332
475,4750,0.0554965646370246,0.0281969862603952,0.0486933983484628,0.0306255970295827,-0.3431446384741236,0.0751099413672213,9.899428392906618,-0.0745292488567753,-0.0375815292676992,0.0311322122883609
476,4760,0.0304840073854665,0.0225677912180468,0.0093453209226468,0.0160000118537156,-0.2279979492794016,0.3307488601450362,9.297876562625184,-0.0616744769641686,-0.0422693358704779,0.0112520709063887
477,4770,0.0241935490395767,0.0240718555393325,0.0224113131349755,0.0208411179281093,-0.0674129317848373,0.1667812518565535,9.497331933352392,-0.0319663974699588,-0.0464876223929823,0.0655706917673127
478,4780,0.0270951195894752,0.0059487578481096,0.024327018306786,-0.0006119090610896,-0.1858593467753188,0.0775361032836826,9.753548959821758,-0.0481986394216639,-0.0562113203260012,0.0892935982466657
479,4790,0.0236232760694356,0.0002453918030484,0.0369685807772899,-0.0145719856170282,-0.278353213290871,0.0588749374784836,9.501434437169642,-0.0359207928413882,-0.0606145070531295,0.0478552749604115
480,4800,0.0403187161272009,0.0336074194544666,0.0414798224400324,0.0189226419075436,-0.1506274428788843,0.1832058821463626,9.520080173216185,-0.0634324416220696,-0.0588053690719111,-0.0060367551113401
481,4810,0.0481710399690939,0.0201204911149871,0.0471208732342066,0.0359826166385301,-0.2571626049567841,0.0674250771070081,9.720174319534552,-0.0480774214693833,-0.0452835916198121,0.0306913155904697
482,4820,0.0481793267690946,0.0332523515967109,0.0436039003495105,0.0207146257587233,-0.3164271033201005,0.2371943206180172,9.468504063067376,-0.0368384018717115,-0.0392269399458442,-0.0047489328396317
483,4830,0.0405910816788923,0.0044619973286703,0.0438829356521582,-0.0057311130267115,-0.1189150635212721,0.0598653317088663,9.454261430891128,-0.0683287076557366,-0.0678847052516117,0.0380925212243101
484,4840,0.0463375505327445,0.0104860686385461,0.0401667005474433,0.0148902531236882,-0.3538068293242875,0.0143918570365113,9.590065859034596,-0.082559666022805,-0.0449572393570731,-0.0001119218719617
485,4850,0.025478800041337,0.0167143307790062,0.0319676344149431,0.0156486636494627,-0.3704622925734322,0.1029339930944385,9.612673170727184,-0.0153816780895958,-0.045082319070646,0.0513149224207278
486,4860,0.0306536391734448,0.0132491279316649,0.0384187312484224,0.0380727563861579,-0.3609652095311896,-0.0170734413153174,9.504124385356777,-0.0995055919052241,-0.0539238336324129,-0.0049937399981551
487,4870,0.0321712910280452,0.0080179663906136,0.0324824274204016,0.0200562223424837,-0.3109418813411685,-0.0305764764329115,9.607937050087685,-0.041234601505884,-0.040638906437658,0.0851097549337427
488,4880,0.0444816486098218,0.031665724790481,0.0387171596921022,0.0139145257881914,-0.1889444435851257,0.220348830143553,9.532831669393524,-0.0448599417385854,-0.0308631672105829,-0.0173288966356359
489,4890,0.0258693472061177,0.0095507419920785,0.0238087580029756,-0.00090950110048,-0.2255278652858646,0.1593749216388821,9.761562550003482,-0.044202115046224,-0.0541394334232928,0.0248529009856932
490,4900,0.0418980796402739,0.0443208348801529,0.0520450583166241,0.0137743059469634,-0.3302435958176435,0.0309612101983977,9.55172150399422,-0.0565238699377591,-0.0625606032171889,-0.045406843341755
491,4910,0.0288082032438134,0.0267141606380424,0.0309949837223602,0.0309588799153586,-0.4215131999433145,0.0686590428090473,9.640682157383344,-0.0277814497935919,-0.051318230334037,0.0168452594805758
492,4920,0.0376465234126125,0.006126305050854,0.0435428738734593,0.0406516937891992,-0.4176853493214904,0.003295037591198,9.570785263982994,-0.050836609354041,-0.0329269347175024,0.036911823682613
493,4930,0.0382433010761766,0.0118023162894522,0.0063086737480344,0.024083464439732,-0.2676260853568866,0.142609129924075,9.83810392444926,-0.0425760353761039,-0.0537643072622404,0.0019819521851713
494,4940,0.0474803378458418,0.0167592871806558,0.0495602040538849,0.0146717374753492,-0.505204662186199,-6.089418423940174e-05,9.724509183112811,-0.0363255920557878,-0.0483328540874589,-0.0026582459182731
495,4950,0.0350772138279122,0.0222372140781051,0.0295911224261081,0.0337707557543131,-0.2373434636468098,0.0836228389626229,9.420071326673035,0.0009704109328019,-0.0432606866730732,0.019044023751772
496,4960,0.0462320921753206,0.0151602880796882,0.0291554149526396,0.0169009554197792,-0.2045711627816445,-0.0854213489435713,9.721993990112312,-0.0431223625336443,-0.0505860775178716,-0.0173069629779967
497,4970,0.0398746730373987,0.0214006119046808,0.0231096051345973,0.0442279173215047,-0.4541302319027509,0.0007458256415741,9.608941191942105,-0.0405040421730493,-0.0433708757855219,0.0038186974499854
498,4980,0.0256638187199842,0.0139283972875324,0.0099217364957239,0.0243480615094093,-0.2682286379556048,0.0603962267578708,9.48172027131533,-0.0381186187409773,-0.0630128760091435,0.0052729155642011
499,4990,0.0057629059575787,-0.0008872311046856,0.0074682798097742,-0.0012419817189583,-0.2880014886384548,0.0964139124048486,10.059260927815757,-0.0426645686070831,-0.0518134392719074,0.0152056283027999
500,5000,0.0429051728217536,0.010514533060828,0.0236152496371953,0.0221212068741092,-0.4123081761843375,-0.0374260303813655,9.456972097405886,-0.0441761581211195,-0.0457113516500144,-0.0058247896235022
501,5010,0.0254088993817028,0.0173127687147672,0.0015085059013781,0.0120536210520098,-0.3953860101342485,0.0028316759702345,9.94633771698336,-0.0428751422026159,-0.0357565662407906,-0.013656115749155
502,5020,0.0220826246313642,-0.0053776918135115,0.0094948307840447,0.0190141307636085,-0.2123252044784793,-0.0165501205375861,9.369153881089249,-0.0173203687894856,-0.0502750508984039,-0.0264896695981105
503,5030,0.0176941247919514,0.006770596177066,0.0160219846706671,0.0179562649708959,-0.4075167608142165,0.0467726028043292,9.706862344578123,0.0344681939837759,-0.05499576538066,0.015924370953238
504,5040,0.0269195035784046,-0.0165427557675258,0.019905065404287,0.0186474641122123,-0.302304521712843,0.0198084899930466,9.679758599030508,-0.0046214800510713,-0.054149711404322,0.0118405757766423
505,5050,-0.0102177279659155,-0.0137012152923829,0.0088792440371514,-0.0074968773221396,-0.3743136825308829,0.0873469855992932,9.693106279732486,-0.0244949426710926,-0.0433595637459123,-0.0206426995051743
506,5060,0.0023350282477483,0.0091813931722813,-0.001128485424192,0.009380081959687,-0.2843834822500037,0.1687847232019547,9.610323469779416,-0.0244384394569317,-0.046935315466169,0.0282151320513093
507,5070,0.0081003699610033,-0.0204151685329311,-0.0055583287758114,-0.0158160921941569,-0.3923333129928471,0.1113266476965091,9.951594767642767,-0.0036686078538674,-0.0284208455981117,0.0058958261057897
508,5080,0.0071546173174249,-0.0017061331914765,-0.0116229191213803,0.0039904259120748,-0.2655404224285598,0.0454714530940401,9.94402266046544,-0.0174754328256743,-0.0610142338899382,0.0309177136148368
509,5090,0.025853226668313,0.0155575094412587,0.0216895357054674,0.0023797085699282,-0.4183933390664979,-0.0889382060097827,9.97702105567571,-0.0304072556624459,-0.060174591317284,0.016705328685384
510,5100,-0.0209351576117862,0.0045121594069073,0.0109195938951288,0.0050156695531394,-0.432682214635088,0.0199154216935559,9.807619731490446,-0.0415777890009263,-0.046066516236589,-0.0009099758554715
511,5110,0.0060093432177099,-0.0049527953756559,0.0098683467054145,-0.0125291415134731,-0.4668276656862959,0.0639635303797243,9.420377793349504,-0.0380744586143182,-0.0669093812812273,0.0208210431193282
512,5120,0.0141843041312421,0.0184570932914018,0.0065770260769808,-0.0013389937508185,-0.5220848498111234,0.1284953937745846,9.769971477312952,-0.023783908845917,-0.0491322087303129,0.0049592022850917
513,5130,-0.0067756664956831,-0.0197321485492494,0.0053614784998391,0.0030198154386378,-0.2278690858427457,-0.0124132387089809,9.506171436986463,-0.0085241995764732,-0.0428868156022172,0.0169067774817204
514,5140,0.0042731305219315,-0.0151866785718369,-0.0110720556225038,-0.0091695886135067,-0.2748638327788966,-0.1673758312130971,9.914922798721456,0.0089948338195533,-0.0550082848859202,-0.0183649974771908
515,5150,-0.0140336878938404,-0.0139096595522833,-0.0145806854249473,-0.0018178391156791,-0.206223509546967,0.1612802417167318,9.752876565524277,-0.0113488315452954,-0.033230415148334,0.013498017074481
516,5160,-0.0024187043079363,-0.0085794448686502,0.0019531217683807,0.0171158190801453,-0.4841761242677309,0.1365796589860917,9.473988268432311,0.0091130948237641,-0.0391726740471714,-0.0056626906378638
517,5170,-0.0126869904295215,0.0070453313482965,-0.0100817998541302,-0.0008523288581671,-0.1850926906765929,0.1235618442190225,10.300809365707838,-0.0246388190093034,-0.0530234882982969,0.0123482410817465
518,5180,-0.0151558810288944,-0.0169022803808269,0.0046662606687641,-0.0057504227932493,-0.2507740464245352,-0.0231334611905426,9.986693130866158,-0.0136631524207126,-0.0529693766991968,0.0044824246972596
519,5190,0.0070320260435873,-0.0211920908041979,0.0026202731449805,-0.0149878446252191,-0.420873489616785,-0.057878258877846,10.087496894940069,0.0232542885217789,-0.0583991959650538,-0.0074113803116872
520,5200,-0.0178509732160981,0.0037395931954661,-0.0095760323442166,-0.0082105194013768,-0.3201057293469399,-0.0310063909607743,10.05126518144297,-0.0004824851716269,-0.0543627883158325,-0.0284650332111949
521,5210,-0.0111500935621207,-0.0022970748238611,-0.0069263122173542,-0.0219145557771881,-0.2932492439793954,-0.169363283106965,9.78915308154909,0.0336413635326993,-0.0319794931714155,0.0253477397649806
522,5220,-0.0133154062325455,-0.0186034347489942,-0.0154488720578618,-0.015898737735166,-0.154450230229899,-0.0798754597188827,9.673705570276994,-0.0476048292303756,-0.0545774091580687,0.0052029171203052
523,5230,-0.0004677059552689,-0.0120757637070485,-0.0140851007938241,-0.0013818151894916,-0.2864851078130352,0.0438591948234622,10.04152734585923,0.0158304108890943,-0.0597643915039153,0.0111086845061941
524,5240,0.0094631097438586,-0.003293685314547,-0.0169367096671422,0.0055796604632348,-0.1404000438799658,0.1431486892176954,9.926444421953722,0.0222566155280744,-0.0562428780526653,0.0107402590894963
525,5250,-0.0126899314505408,-0.0208596651145463,0.0013964762801918,-0.0025198194780528,-0.4396093615537703,-0.0431832598027758,9.45404405304711,0.0268015489173932,-0.0691373120937598,-0.0164746630356035
526,5260,-0.001117968924074,0.004366611565647,-0.0128341565896016,0.0016472228927092,-0.301542645400902,-0.0225622752809495,9.689251755886875,-0.0168248467187169,-0.0480493148944518,-0.0349423670503444
527,5270,0.0084311201459923,-0.00703803718633,0.0091622875274513,0.0115100222331897,-0.2197991825929851,-0.0061054241773063,9.808651072746718,-0.0196441072073824,-0.0598280339812216,0.002829658006549
528,5280,0.0171966154706428,0.0083744548784218,0.0246237241396744,-0.0177378804000199,-0.3554552320471724,0.0480698188893319,9.381775202235088,0.0107131891322144,-0.0452130510550647,-0.0247301723264797
529,5290,0.0055902214497874,-0.0102436954130843,-0.0126297394886629,-0.0219535736562482,-0.4754047959119202,0.0794161336336044,10.011805450626296,-0.0256715594938758,-0.0454592517515488,0.0129103243725689
530,5300,-0.0022938896927595,0.0040598536723601,0.0014458198483223,0.0033614149932816,-0.1838988550326696,-0.1019960543301337,10.0352384910447,0.0065391453132346,-0.0478628785477817,-0.0237482179079821
531,5310,-0.006285224965707,0.0289164997265092,-0.0004313281386847,0.0093843564625454,-0.1659092843912244,0.1322678779562383,10.008354850219972,0.0214499139291525,-0.0449403525361855,0.0105250375438708
532,5320,-0.0097783788642373,0.0134015975658686,0.0046628158410765,0.0178248428475427,-0.305663673831019,0.126157833914877,10.052647454958551,-0.0144010787814379,-0.058497730306376,0.0410941244489685
533,5330,-0.01873975632268,-0.0072824012812789,-0.0018109989038902,-0.0007281171710624,-0.183189869833653,-0.1348707331174294,9.958493295355357,0.0569455342818242,-0.04696901477573,-0.0176729359796343
534,5340,-0.0124753503620899,0.014058668501939,0.0112778360828967,0.0084415037391394,-0.34135038031417,-0.0216834477205341,9.49867555091198,0.0160300018285914,-0.0469209514878007,0.0128709911881144
535,5350,-0.0106836581605776,0.0136332283510136,-0.0082602322754894,0.0046609842246291,-0.2706425639934038,-0.0935817004960153,10.191402403117756,0.0120350992561469,-0.0381500361178286,0.0349982903891798
536,5360,-0.0102126818947581,0.0240471381823267,-0.0005888395850108,0.0111865435808513,-0.4194553669630586,-0.0306474201289257,9.883131312773395,0.0251096490571299,-0.0569908010086308,-0.0144388599876642
537,5370,-0.0056484511593723,0.0044546699591466,0.0015840893226218,0.0242903311855212,-0.4514115018220647,-0.0998404006838435,10.029697214544818,-0.006133854889957,-0.0412682040364558,0.0213282071782073
538,5380,-0.01454022378534,0.0080889470056767,0.0017256454253922,0.0108065597563999,-0.3016899976137738,0.0177566835954259,9.456065943953035,0.0190258446468713,-0.0262463684123668,-0.0186881447173956
539,5390,-0.0062927740992532,0.0061410618175842,0.0059559516465226,0.0020350833180818,-0.5219612866267842,0.0521676435128582,9.883572972683162,0.0338714072828458,-0.0538359720400366,-0.0393503929415741
540,5400,0.0125030085716001,-0.0162144538417861,0.0112051536472869,-0.0062805089180635,-0.3865960101082585,-0.0835661048176221,9.898006239287312,0.0109709208289298,-0.057414070367488,-0.0192667506585553
541,5410,-0.0015427664741483,-0.007627903176025,-0.003190461767757,-0.0041383150290001,-0.2851892545241639,0.0882467212058004,10.011055040679336,0.0214860043397519,-0.0462477121047754,-0.0236821922475787
542,5420,0.0055266549307871,-0.0057823936212859,-0.0066081881152025,-0.0141736045022045,-0.3893296882639186,0.0587777321460956,9.618362404847916,0.0224821280581328,-0.0420292324320881,-0.0574043085107957
543,5430,-0.009701711693887,-0.0011075484882269,-0.0104640498055847,0.0149931111860265,-0.1979140292660468,0.0061415192400534,10.104684904140576,0.0184258885396764,-0.0588742912027091,-0.0383767223539159
544,5440,-0.0244170132639937,0.0059694212557968,-0.0236441666912337,0.0082590956838965,-0.2762873625346083,-0.0577495122833415,9.881275863457708,0.0286939781939436,-0.0443940243632217,-0.0100776498461142
545,5450,-0.0133255039338381,0.0041933577918687,-0.0093663312558155,0.0183307016585044,-0.2052030620650432,-0.1340491042411455,9.976330726731549,0.0497397451867522,-0.0585201617791177,-0.0115247405488181
546,5460,-0.03036608942904,-0.0257496624172074,-0.0192295869822446,-0.0031957575790352,-0.3005948689882775,-0.1127481947009288,10.062895892145724,-0.0061533438287443,-0.0583393605898756,0.0052718995661389
547,5470,0.0010337105853775,-0.006720510745071,0.003388753710123,0.0086508876016923,-0.3266610615618198,-0.0730248412292061,10.18165925886816,0.0263248778233385,-0.0399873940531642,-0.0012869511513193
548,5480,-0.0251902614756855,-0.0100844378407911,-0.0112221266821996,-0.0199006375709489,-0.3016347850124567,-0.0418331814075417,9.96724837993695,0.0541666028657718,-0.0543131752591098,-0.000835484266158
549,5490,-0.0015279488451228,-0.0187436302353132,-0.0137900896634021,-0.0048161416891674,-0.2857549603900805,-0.1999174445845897,10.00158740430733,0.0166734848523889,-0.0575642843235572,-0.0249399871053702
550,5500,-0.0124499364457318,-0.0031036249549916,-0.0077534146998557,-0.0167496661475451,0.0450976642202221,-0.035270402918191,9.856918961815552,0.0447277113381182,-0.0732647211184409,-0.0207907093571061
551,5510,-0.0161078163720232,0.0064334011977535,-0.0245275968151147,-0.0145906785689821,-0.258835474051773,-0.0209291199724487,9.960871110755384,-0.0029197435255944,-0.022139259512896,0.0016560210326628
552,5520,-0.024109617437909,-0.0043036413218032,-0.0198537137673065,-0.0080852799136114,-0.2761342855366615,0.0285305940568877,9.87516615904664,0.0401285741266982,-0.0592888241178257,-0.0175307644529762
553,5530,-0.0435705859827647,-0.0240610576548713,-0.0243536858940741,-0.0042519113824312,-0.1509308459721189,-0.0856871440378616,10.0069445976827,0.0576647921478808,-0.0547916368126243,-0.0477540682372566
554,5540,-0.0289502365907499,-0.007736953485318,-0.0340860228974159,-0.0139059868424275,-0.2884516801094967,-0.0704082296575716,10.0516609791223,0.0627555966174307,-0.047322340963639,0.0148612503416759
555,5550,-0.0150917103583314,0.0087361056880475,-0.0231718582468798,-0.0134747548376591,-0.3130345050815237,-0.0044431919295591,9.744352233386836,0.0308905162125099,-0.0459989283748396,-0.0517080770596055
556,5560,-0.040117801344386,-0.015052956943568,-0.039105887467509,-0.031961269175561,-0.2037852335902498,-0.0193762652008976,10.14821086335704,0.0007997648890031,-0.049713478882382,0.0110971670124707
557,5570,-0.0553399138827106,-0.0161579613548955,-0.0281683213766348,-0.0134697911080976,-0.4405727609255193,-0.0034814796766078,10.174668558935114,0.0526082124382594,-0.0789698076880707,-0.0118510827191197
558,5580,-0.0408964710211732,-0.0198318043037192,-0.0305731654906287,-0.0205378258509504,-0.1885183692980949,-0.1261417237903146,9.748466452361134,0.0582521271115723,-0.059058219384134,-0.0305420750401546
559,5590,-0.0474428367583192,-0.024856691193159,-0.0341967361821253,-0.0331776394843045,-0.1142196786065008,-0.2137877807906377,10.164287934079528,0.0715066414026825,-0.0485368351486169,-0.0430929222689685
560,5600,-0.0286581747156252,-0.0086853215666282,-0.034575699084592,-0.0116471954279253,-0.2041848734438786,-0.1961250388033974,10.081175209248924,0.0573208720712756,-0.050536707324793,-0.0290216628264298
561,5610,-0.0463534395408281,-0.0086170995416347,-0.0180672132485283,-0.029591067522658,-0.3240564827181582,-0.1233968806546566,10.024212380382696,0.03654758460441,-0.0476027557992169,-0.0484895155546377
562,5620,-0.0467035059387749,-0.0221107434563264,-0.0388274514172119,-0.017856329703398,-0.2808392346079399,-0.1137679588080814,9.927928754867704,0.0175287259338767,-0.0480120134900074,-0.0156234943000016
563,5630,-0.0533994240322088,-0.0150714477269498,-0.059385714184099,-0.0202671366043299,-0.1370603960583727,0.0531630487796984,10.078564505568549,0.0630016742509754,-0.0434497681955107,0.0186638055143187
564,5640,-0.0446553583422162,-0.0331473814590601,-0.0246777942403973,-0.0374553035993044,-0.1792176782610138,-0.1436084992688656,10.002835433228968,0.0619028774192977,-0.0437938861823751,-0.0135206405907553
565,5650,-0.0262260837914046,-0.0206071093296002,-0.0260656109464902,-0.0344267860076587,-0.1755380694050116,-0.178275965815452,10.04936937970837,0.0569344708979035,-0.0559002249780383,-0.0607972415660092
566,5660,-0.0453202694603866,-0.0155486547441832,-0.0382885114984955,-0.0092578394625053,-0.2813578624774498,-0.2439078463537308,10.149313608220044,0.0545367556662582,-0.057142255941504,0.014371224608327
567,5670,-0.0304499276082528,-0.0037156803956656,-0.0215685749016492,-0.007851423076006,-0.3585534534467163,-0.0886321164923145,9.792535166333533,0.0557047704748917,-0.0483895333247637,-0.008328899484106
568,5680,-0.0363621644614732,-0.0034481019276489,-0.0186636515692159,-0.0228228903448399,-0.177320024520459,0.0172218960201637,10.032975612190878,0.0487338593390445,-0.0442959908225738,-0.0139047190302932
569,5690,-0.0430177305746448,-0.0194798268408026,-0.0379889427519156,-0.0175321865695966,-0.2792074781386066,-0.0484826893030499,9.898111080267364,0.0348611311277934,-0.0528138854529687,-0.0183569653187475
570,5700,-0.0403983266171264,-0.0113682646241723,-0.0272486255230576,-0.0054825325013582,-0.2973610078430876,-0.0874663233154015,9.92803155920882,0.0739174712252586,-0.0704576950209794,0.0190767467587521
571,5710,-0.0398844051215734,-0.0014473123073241,-0.0211037710652534,-0.0083870106198012,-0.1605988022467096,-0.2106112140183772,10.073025806990929,0.0893289850031214,-0.0488760561035,-0.0200063959150181
572,5720,-0.0614115958029142,0.0049866814002804,-0.0344948638175563,-0.0250995418456167,-0.2823519478602737,-0.0256158447023413,9.963933617053891,0.0567273816287194,-0.0527770751765888,-0.029036590727417
573,5730,-0.0414639461848239,0.0099046133797013,-0.0348769823648877,-0.0054012195676423,-0.4212517127500113,-0.086648946724238,10.273844588126014,0.0707702844177095,-0.0524018291194342,-0.0338073726748101
574,5740,-0.0402690400608914,-0.0017382742006827,-0.0194399516137891,0.0096781966516166,-0.3152361484747497,-0.0221308624460053,10.16252127735299,0.0620392127184545,-0.0345951339318339,-0.0288641089074481
575,5750,-0.0455425161102806,-0.0062758812233535,-0.0385898319844323,-0.0348042911781192,-0.1968017091489563,-0.1214475973067063,10.404224881029238,0.0682402523985149,-0.0265260423126484,-0.0417443988028339
576,5760,-0.0286318485167077,0.0039501170250068,-0.0065042385048468,0.0098819630575029,-0.0942159922668262,-0.1243887350784395,10.248609954968902,0.0269268343729759,-0.0479947565387044,-0.0043057674045408
577,5770,-0.0265148311247566,-0.0104764651091658,-0.0264810696811041,-0.0019331427053344,-0.1673270154423191,-0.2284008574994492,10.308218836943258,0.0951577236252117,-0.0396186106453454,-0.0044026880182112
578,5780,-0.0258158140874239,-0.001640529451397,-0.0200068739262416,-0.0156055066902898,-0.2214258211183187,-0.1542527390694298,10.29290654951044,0.0446356884024148,-0.0310981563251679,-0.0594526617918053
579,5790,-0.0053573839692087,0.013303542004425,-0.0047502337120895,0.0022082975293066,-0.1841563595946209,-0.3237559204806247,10.019068200230976,0.0458616100723294,-0.0603021414765322,-0.0397517879324797
580,5800,-0.0083170707643049,0.011017988998494,-0.0003601496014799,-0.0077780482933626,-0.4293922773912248,-0.1119571075673134,10.305235429236852,0.0702941450643573,-0.0538981060096888,-0.030856063911392
581,5810,-0.0155707029767374,0.0078766443205307,-0.0260833675087879,0.0022218519353625,-0.2449022141065631,-0.0902196326948264,10.298622845652384,0.0810231144448365,-0.0437946941199892,-0.0470076907709364
582,5820,-0.010883799696756,0.0098259323522093,-0.0114794059409988,0.0080174790995338,-0.283633210273724,0.0040392691613155,9.921283849773404,0.0653846281147609,-0.0427873942641347,-0.0069595702831577
583,5830,-0.0241303271572826,0.0149251646200059,-0.040402327984897,-0.011671296294966,-0.3456137165212519,-0.1780119635313401,10.083909699855116,0.050855876406024,-0.0491727246592124,-0.0394433416250835
584,5840,-0.0179350867138378,0.0105907307743352,0.0002540200122192,0.0108339798139427,-0.068534653026073,-0.2175166184781531,10.062631558168118,0.0749269049450909,-0.043836175557404,-0.036136002072409
585,5850,-0.0203310258309694,0.0179649406548014,-0.0173278882147682,0.0233656170790667,-0.2312685374547048,0.014853771459568,10.133538873851617,0.078435692716994,-0.031117820381997,-0.0654316868201091
586,5860,-0.0184970798420125,0.0239015027125681,-0.0246278743781708,-0.0007980193645748,-0.1957835389737774,-0.2411852535483394,10.211657496855045,0.0968119629290747,-0.0269460051332772,-0.0480359045845235
587,5870,-0.0185133726294089,0.0277976673636507,-0.0168190942307531,-0.003779848552563,-0.3447566053331726,-0.0801886661750799,9.926821258532676,0.0960675979252366,-0.0424177913988859,-0.0648136158039801
588,5880,-0.0283652342693905,0.0160130978938688,-0.0144202018098942,0.0150693402349102,-0.3886323785848702,-0.1034268350465146,10.172518124388784,0.064610039393959,-0.0327196510796484,-0.0429966083566831
589,5890,-0.0264923436538993,0.0241447831861485,0.0021928725970351,0.0093234563356395,-0.0898828285916142,-0.1341130331928489,10.413004907145078,0.0776175571659141,-0.0395606467876098,-0.0802492946775225
590,5900,-0.0115473681068333,0.0157453014369831,-0.021426934341961,-0.0126498270199305,-0.223338857141381,-0.1058869880244234,10.258752934764548,0.0718822497428351,-0.0431653045017996,-0.0780171440404782
591,5910,-0.0245607328054382,0.0181095484298327,-0.0342814256471264,-0.0173991833508962,-0.066395490145675,-0.2431114262465159,10.24472749645338,0.0948227006694612,-0.0335112713301868,-0.0725845324019028
