index,elapse_time,susp_fl,susp_fr,susp_rl,susp_rr,acc_x,acc_y,acc_z,rot_x,rot_y,rot_z
0,0,-0.0163359997049354,-0.0046318608931545,-0.0270718919875462,-0.0167000337706351,0.2983911258989414,0.0465995008978191,9.4226272650844,-0.0270014389221748,-0.0116707366768079,-0.0530332793368635
1,10,-0.0001141752447706,0.0052414088475138,-0.0267377208258223,0.0136771734979843,0.0267385634554606,-0.1292384788407192,9.772970413329672,0.0138141877540113,-0.0065750199394253,-0.0226537882617066
2,20,-0.0030805393687739,-0.0171233557969744,-0.014060864686197,0.0108885649249908,0.0162702284066419,-0.0314399558245955,10.026066871906536,-0.0118194623205172,0.0150151025326998,0.0230859896694999
3,30,-0.0054365678043771,-0.0103946653833333,-0.0120339263320003,-0.013851111029259,-0.1276839821386464,-0.1778655528563363,10.01814923485328,-0.0142193976313939,0.0115842908789182,-0.0459308835940532
4,40,-0.0084933953025997,-0.0174237329390607,-0.0001788101619918,-0.0001370297880516,-0.0087497922444502,0.0130454946285755,9.590820443651529,-0.0027022922304501,0.0084087992516097,0.0007336799509082
5,50,-0.0215592835934203,-0.0009778167288415,-0.0342138813670349,0.0076617626319964,-0.030356795640609,0.0916429704702388,10.11888171232998,-0.0322620236419178,0.0121390571496813,-0.0144631856429628
6,60,-0.0102975020864897,-0.0006464998912408,-0.0231956893215372,-0.0275892462276437,0.070205171978825,0.0456997619470198,9.723822199458327,0.0004048622386085,0.0032730682204576,0.015201556331279
7,70,-0.0141031917671693,-0.011674616869848,-0.0152355427314428,-0.0240043765743148,0.1466095202454113,-0.1169276368493003,9.541105808062484,-0.0369558964289765,0.0158139282954284,0.0039232530599937
8,80,-0.0074220659964537,-0.0132653477708098,-0.0129722466107361,-0.0161377689102783,0.0862315791501017,0.0691928144507789,9.693816897485316,0.0010501746508221,0.0230846987771538,0.0067070141255572
9,90,-0.0116923062255558,-0.002595890805561,-0.0038818672563372,0.0142342065747003,0.0554309527134246,-0.0355068109332562,9.82811855212972,0.0166507070384784,0.0140502056311218,-0.0273834265254089
10,100,0.0014171185776431,0.0114398854879415,-0.0146571336267902,0.00389493245843,-0.0021383725079435,-0.0217743430510698,9.786498856501373,-0.0102058307790866,0.018731575161411,0.0033926496284913
11,110,-0.0095630003516549,-0.0064321470152797,0.0065336534942941,0.0044754963394373,0.1800805629967694,0.0370259328419455,9.739751441947115,-0.0174980900069453,0.0013005711070325,-0.0398589408990292
12,120,-0.01915300854212,-0.003330747168525,-0.0114554633526905,0.001184184631154,-0.1027768360453129,0.0211583511786535,9.799840676926042,0.0325815227202326,-0.0271109185813426,0.0077816686228182
13,130,-0.0101089191727681,-0.0070402827405182,0.0005139279127703,-0.0194237522939926,-0.2003067638054287,0.1033832665588278,9.662214073078838,-0.0324631350219533,-0.0072787420929059,0.0109034084324431
14,140,0.005793492491908,-0.0018174894423067,0.0118099838305638,-0.0153844283594043,-0.03059510474862,0.0133358089530814,9.82179482988601,0.0159046152130434,-0.0095323888653763,-0.0522960024557236
15,150,-0.0057260485810608,-0.0041572998332884,-0.020994773843034,-0.0192974146285971,0.2504366953797864,0.0559354135404096,9.698087769509062,0.0171055480731748,0.0031699430059633,0.0100435534065109
16,160,0.0136951492939698,0.0097956541310404,0.0081454978149137,0.0072054116236462,-0.08790878976995,-0.1012716276356059,9.547893713297109,0.0014636330709497,0.0125953600495376,-0.0373211725845685
17,170,-0.0081397519227911,0.0003626866635258,-0.0072166955264274,-0.0097601743102381,-0.3250678173609318,0.110591181447733,10.0251296623198,-0.0033758890660461,0.0107489600067308,-0.0242357331821706
18,180,0.017626697953041,0.0192990673115202,0.0079983206193544,0.0176579548645316,-0.2043844185499208,0.0317593657895211,10.221821410476275,0.0043053442162828,0.0011460612764507,-0.0114259757557776
19,190,0.0110317128092201,0.0053799640911139,0.0119485219606716,0.0244591770961053,-0.0610301867714875,-0.1400845461008793,9.99442471652979,0.0025530085546821,-0.0038429344940206,-0.0114191492218243
20,200,0.0303880778577788,0.0166408537059534,0.0223004300785289,0.0081871296410559,0.0817621753125406,-0.0674000493923834,9.729042001055332,-0.0011433708707193,-0.017022356828073,0.0199116015501882
21,210,0.0094510429160516,0.0178430876973436,0.0169007839223131,0.0126941559234175,-0.2405571978830327,-0.0452637569193717,10.315803698479638,-0.0319046917760024,0.0107707873202919,0.0280102392042079
22,220,0.021367733536823,0.0244451003465342,0.005913886980972,0.0035544131667541,0.1276227221526128,-0.0432142418707842,10.028349315074568,0.0201336312593602,-0.003185593093801,-0.0518521444176427
23,230,0.012229284929567,0.0134402175272293,0.0102682255250642,-0.0116574673466906,-0.0436800562162397,0.2006495698855177,9.905157815407431,-0.0158415329179439,-0.00077114211116,0.0322907141924785
24,240,0.0171091228933968,0.0315024160470544,0.0160525115320327,0.0085327617344642,0.0120180394925063,-0.1006569064813106,9.830586588369536,0.0055224747621799,-0.0088860420434984,0.0214238154545112
25,250,0.0043145934232657,0.0024190072221005,0.0189340222631168,0.023957699119094,0.0006284563628753,-0.0019508970143873,9.830591077263431,0.0313782267975815,-0.0081138089304559,0.0451715556233285
26,260,0.0154678866295588,0.0152396718895939,0.0126676575508478,0.0320312205221582,-0.0190170942189286,0.0563401597468548,9.474746155424462,0.0230204311989451,-0.0360569161162452,0.0129401838917623
27,270,0.0301246725663933,0.0112219747309206,0.0140787722398926,0.0114138076129047,0.0719078449539979,0.0399241104454072,9.663852817163416,0.0354009519813449,-0.0118375254899176,0.084476641081675
28,280,0.0301825429048179,0.0229478026626161,0.0290103020193962,0.0238455317280076,-0.1468404570947456,0.0025301060652396,9.98093373180749,0.0306835809372543,-0.0004380053764112,-0.0209466019810001
29,290,0.0166946852400458,0.0141207202113194,0.0049908687808189,0.0183452808082408,-0.099861205915264,-0.0392465374534003,9.667605718792498,-0.0043867386821658,-0.0206533766098359,0.0128973584815742
30,300,0.018570352145503,0.0192933059208901,0.0339616615187709,0.0136372275948695,0.0642295697414227,0.2027761750068825,10.01907220811147,-0.0117208656756786,-0.0039092064487195,-0.0046016785412492
31,310,0.0086408033893873,0.0052770865298407,0.0051319757654673,-0.0013924729916655,-0.1237161474847905,-0.0240558356476787,9.882931574573378,0.0362019053591717,-0.001772833159331,0.0148747710866329
32,320,0.0126830171787648,0.0115955858928986,0.0293162285062927,0.0257933086562389,-0.184538121124005,-0.1082493773857555,9.897775996593223,0.0378154196531536,-0.0151585986647218,0.0647125405378322
33,330,0.0228536158206317,0.015026227689082,0.037893929713044,0.0351215098371388,-0.1569321998744292,-0.1302185568313738,10.064527641576266,0.0205853996498061,-0.0020603559229005,0.0248177431650633
34,340,0.0217124958771265,0.0137369354797804,0.0262597752635326,-0.0061360489173444,-0.0042686202700719,0.035341749179146,9.958209365384368,0.0106150296337782,-0.0132077608943404,-0.0187100481916082
35,350,0.0262027852169094,0.0134944397217982,0.0231137737246788,0.0054588056527185,-0.1518131631265566,0.0626003619615281,9.949991157856084,0.0082614549958659,-0.0032517001295104,0.0398460231166855
36,360,0.0258013623363389,-0.0192094008936007,0.0232111744503174,0.0191627769758468,-0.2127620156909706,0.0093625869879566,9.52249672276204,-0.0070821935357596,-0.0144883417964906,0.0353536391494289
37,370,0.0337044219624152,0.0037928961694134,0.0204980158170929,0.0072086688807667,-0.1147793671201585,-0.052945530798181,9.890331765860994,0.0197162349852227,-0.025276370970325,0.0065341286330256
38,380,0.0176757340818419,-0.0101804815289183,0.0160351371100974,0.0350984404757126,-0.0757893601614383,0.0452013750384371,10.048320980719744,0.0425812583269393,-0.008140130108342,0.0142882843465876
39,390,0.0293179906749252,-0.0006795401242202,0.0142700828510511,0.0185094643180499,-0.058336450726833,-0.0323781376068759,10.260143492881946,0.0288261275971077,-0.0023291810170773,0.0338610098815536
40,400,0.0097337335633996,-0.0008039071562861,0.0097024369935018,0.0085699132590835,0.0607504920892881,0.0508329621467832,10.081095763962376,0.0452116700589461,-0.0170705500536591,0.0688727025774464
41,410,0.0185364312072857,-0.0074834167561323,0.0201193292802797,0.0071116580336465,-0.199728274471833,-0.0236030514965581,9.799481787543044,0.0150509312756738,-0.0121986821304099,0.0237977676017209
42,420,0.029616476631486,0.0263883468805421,0.0258489461818146,0.0131449270185051,-0.0577926132373584,0.1808562903574799,9.541567922929174,0.0211367452644586,-0.0089862137496334,0.0148942370023495
43,430,0.0103278283452606,-0.0007053140447846,0.0042926237228939,0.0050907784517435,0.1089969108491597,0.0094955120713589,10.005357150153792,0.0311564155092979,-0.0040629595849419,0.0246449584921048
44,440,0.0034149494070222,0.0016679717884029,-0.0057962980620357,-0.0052052708124949,-0.2579199441037766,0.1073783030672271,9.835238509377165,0.0488778242403395,-0.0075817789379422,0.0593761080375588
45,450,0.0135117506411337,0.0155649214582568,0.0058922738969522,0.0093231470151085,-0.0942333587248971,0.1067817203662088,10.08546497911983,0.0303013670199906,-0.0046915638453076,0.0246577314278175
46,460,-0.0047351744546779,0.0009060884852956,0.0179970613309572,0.0241274966023712,-0.1242132171024992,-0.0464463157285921,9.6775204136099,0.0045794406777665,-0.030886686876972,0.0357072025154853
47,470,0.0100901398764706,0.0249577742275939,0.0209147351096872,-0.0087952241796917,-0.422666318010079,0.1141764424968521,10.1354663135998,0.0221026897351673,-0.0002861879008972,-0.0169698347704012
48,480,0.0246866407295759,-0.0041716994185291,0.0371355945424045,0.0398363646305797,-0.1484628638244904,0.2340847486133554,9.54948273255422,0.0414293948619585,-0.0129905991031847,0.0095338820563234
49,490,0.0175397606854398,-0.0099728610242599,0.0103113060479751,0.0255186304665915,-0.2034101477149709,0.206773595670141,9.838798320952504,0.0743779157733054,-0.0053999680775449,0.0119604576186239
50,500,-0.0039529560512126,-0.0119830858150367,0.0115755617320983,0.0011463592787688,-0.2606353688704328,-0.0407450960493094,9.566750400354932,0.0286064638799223,-0.0099595167981525,0.019606484544785
51,510,0.004758078651252,-0.0125089444735743,0.0024968610815244,0.0110799151928315,0.0284725189340226,0.0609302758731663,9.820528650712468,0.0532263664686775,-0.016625920617706,0.0344650342379617
52,520,-0.0022697863292793,-0.0032140915013343,-0.0065019881385413,0.0031827166869263,-0.0156596300773711,0.1134079796734534,9.629283873757444,0.0625074680941792,-0.0152698995267264,0.0128306153446304
53,530,0.0374674654802762,0.0096229933660411,0.0069565158834558,-0.0058565880942369,-0.0035794045303634,0.1643007948337951,9.947279442327243,0.040689202740198,-0.0284852730601367,0.0366229512487841
54,540,-0.0001704043856911,-0.0060276870559024,0.0334392795799825,0.008244608062382,0.1373973849041187,0.0885799673529251,9.9548956225117,0.1095197327242462,-0.0041300313325858,-0.0582554876418895
55,550,0.023320149633958,0.0221365789556771,0.0186250449391572,0.0096052545233535,-0.0870188398121247,0.1326473753446863,9.879064500768802,0.0441461191971093,-0.0227268212654273,-0.0158977647329957
56,560,0.0336864920882458,-0.0035364807103113,0.0065684352660299,-0.0049330792294486,-0.0568767431922787,0.1948459815095941,9.992978843106936,0.0450944412206957,0.0078072267682317,0.0292573175393757
57,570,0.0246399416821772,-0.0045283070078953,0.0373514321296636,-0.0116679251347012,-0.1477975511329473,0.3150278705773014,9.897004775852327,0.0297831577467957,-0.0223510414189101,0.0400083453613916
58,580,0.0306960138353865,0.0239879939441964,0.0384817928233322,0.0177483095676837,-0.3165667294771588,0.1164699244868314,9.887992140180335,0.0626935449449264,-0.0161639294571835,0.004799807570656
59,590,0.0171356639657239,-0.0229454346179344,0.0156773243305643,0.0048875326964509,-0.1858535718229031,0.2056538076461844,10.111892881730256,0.0526815418136554,-0.0201317465026673,0.0239538483338567
60,600,-0.0027011873731115,0.0025156995536342,0.0344928599072811,-0.0117258043833476,-0.181583662125501,0.0102860813859499,9.851699250714448,0.0570736899204604,-0.0267271429139363,0.0552598047665385
61,610,0.0330963772283082,0.0114162166727929,0.0232727398424533,0.006855573339555,-0.0644955470804213,0.1844471778685242,10.040141715330847,0.0607958539857383,-0.0051349506291401,0.0591156177677163
62,620,0.0163238750338523,0.0079307089776916,0.0167128785148466,-0.0030074431254128,-0.1689285778197246,0.2860750475185312,10.226806211989418,0.0619346577999046,-0.0210870727352537,0.0256899321112207
63,630,0.0315544659781316,0.0121606169955347,0.0213090468304127,0.0075676502399857,-0.1057712590396197,0.0109679482306554,9.964903768325357,0.0642726609538426,-0.0319552402708083,0.0576099346556095
64,640,0.0187740601469398,0.0090650222946471,0.0234917524430317,0.0128808289428984,-0.0478712284615173,0.0482132861341158,10.08095013333439,0.0817329617298989,-0.0067571594737546,0.0424759355371527
65,650,0.035668454335589,-0.0020987273274802,0.0298736810010366,0.0029749948730791,-0.2558209023732247,0.1182014733022952,10.078703218239225,0.0291922611241871,-0.0159751200467913,0.0815508528555359
66,660,0.0468189098335403,-0.003193838470177,0.0420468746775983,0.0233554925261518,-0.1226750206920317,0.3407450139435739,10.013410084230966,0.0275696004464891,-0.0216435288047089,0.0321245294083439
67,670,0.0365793517246731,0.0286772945958557,0.0224479620943439,0.0094680618124111,-0.1370333726194656,0.0413089721144796,9.976668109617744,0.0687795854704601,-0.0158890033365046,0.0852943156301802
68,680,0.0513405347031272,-0.0019596072247346,0.0484639643162439,0.0238251945269904,-0.0239002181246884,0.0458824658984338,10.440867602745442,0.057631798182473,-0.0139871511110807,0.0605725397817446
69,690,0.033764402664542,0.0216754036554293,0.0430257308349251,0.007484069051344,-0.203786193857894,0.0861184456080967,10.163653373880235,0.0554834640303514,-0.0317776503731849,0.0880698206065348
70,700,0.0501758026285803,0.0319971800125383,0.0185893311425836,0.0394205103967843,-0.1465505724891708,0.2656662538777899,10.17795748422414,0.0234068539910996,-0.0124899609728925,0.1247738136986222
71,710,0.0517675700352709,0.0175851160598852,0.0332977668446784,0.036586664330373,-0.0816166828478642,0.0070088596163221,10.432120564958424,0.0631640481962102,-0.001889991655131,0.0497114870324997
72,720,0.0316413426328118,0.0234461731007839,0.0219106940400858,0.0284842596337271,-0.3643297769965339,0.3428452964481817,10.1918807477891,0.0787084883713788,-0.0211534710648018,0.0135260162996119
73,730,0.0461639747370133,0.0307112166628438,0.0454868812767803,0.0293113215592252,-0.1174700597965258,0.019403285674922,10.147773025559628,0.047339902427927,-0.0199847125192627,0.0152686139510912
74,740,0.0400309020035601,0.0220696159260973,0.0516002491770732,0.0501419526309043,-0.2302250862174387,0.2084315678292638,10.448136561095705,0.0610178524602251,-0.0319883771610239,0.1009285831140345
75,750,0.0589051616839015,0.0092513263731009,0.0450697205815084,0.0246421929623527,-0.1347207155307629,0.1103791734627974,10.010368292681797,0.0690632593128116,-0.0261914390698536,0.0718253193947086
76,760,0.0533237550611095,0.0197662114070752,0.0461060942952235,0.0398715073525287,-0.1537497105877446,0.2396455266653176,10.16682238958704,0.0559775451930013,-0.0441638482326429,0.0209126675378078
77,770,0.0355368914866048,0.0240403307247265,0.0592039309442769,0.0311292517000455,-0.1889247700623869,0.1138655202883381,9.784470763794042,0.0782342422236194,-0.0354529171068614,0.0623874996141642
78,780,0.0298569889742408,-0.000593665758292,0.0421644974831675,0.005261350074865,-0.0220216390238277,0.2242892567979192,10.093042769123311,0.0864859579860541,-0.039318938064095,0.0874162720831004
79,790,0.0516355910571896,0.0035410361034428,0.0514271784676183,0.0286024021732662,-0.1458466934026843,0.1822584831425362,10.010130271005316,0.0712016063310304,-0.0274310941615774,0.0880329414055409
80,800,0.0158407297763027,0.0209116885497301,0.0319454128116062,0.0217909194987012,-0.0467402411538948,0.3530078462065629,9.889668681341243,0.1032369966115909,-0.0471592356206678,0.0422912602227598
81,810,0.0395556311859184,0.0102160868487619,0.0620018191354145,0.017056130613912,-0.0393666509032852,0.2067208403241389,10.42608921791348,0.0658227356948346,-0.0266337257916324,0.1012893403726963
82,820,0.0408905642422137,-0.0038706364467883,0.0277703507186026,0.0099501280877117,-0.1586240527883712,0.25401971597538,10.237659102075977,0.0732180795857024,-0.0198926946082151,0.0332100625927538
83,830,0.0335738644730919,0.002545622822888,0.0394668096214207,0.0254027687741657,-0.3620602009540754,0.1592416327556308,9.998603046242565,0.1301065551421119,-0.0276223908767683,0.0268939653567493
84,840,0.0343423831189204,0.0201003067400495,0.0216972017742956,0.0112508234440513,-0.2878463339381602,0.3178946158235544,9.950349645568105,0.1067491258656509,-0.0116635161809694,0.1159535243330996
85,850,0.0449159149379826,0.003065044663958,0.0111410843018643,0.0129258347410894,-0.2650766389126423,0.1946595327538671,10.433352062976631,0.0916496971330085,-0.039876930480693,0.0604327871611509
86,860,0.0259039105379914,0.026734896929922,0.0480499245290345,-0.0025515810449993,-0.2738409201366937,0.2530045001156397,10.267117448706502,0.0822341458607971,-0.0318758693080263,0.0725234186624477
87,870,0.0354240841074448,0.042953099828698,0.0446996404200259,0.0137061094334514,-0.251578569697003,0.1981475138685871,10.154917318599566,0.1157733795561019,-0.0176422745963981,0.0660996984438081
88,880,0.0489381326067449,0.0056433341166724,0.0609237887400576,0.0245569141678212,-0.2537787759214406,-0.0089538171573226,10.250471950648835,0.0945407935126837,-0.0400817384235615,0.108552314676639
89,890,0.0131387596130727,0.0087391254577463,0.0435530243877922,-0.0025775650755921,-0.2065222672541582,0.0186176283110967,10.393422488859514,0.103834115278394,-0.0365309195355121,0.0762989679674126
90,900,0.047822984988666,0.0250182457935531,0.0424435671828585,0.0147068388214486,-0.0293933418902314,0.2131073582460177,10.002920736679147,0.0997690230208674,-0.0277757466535055,0.0521078089749916
91,910,0.0347771762229445,0.0035565731422603,0.0140310040088671,-0.0068495956858894,-0.2446309308904067,0.3830155901899258,10.135029784163974,0.087791721102421,-0.0340052341010687,0.1183454121798468
92,920,0.0266115964375544,-0.0109956471776737,0.0217786591498397,-0.0037574946725946,-0.1615029466458535,0.254414188242185,10.220188609681532,0.0929367920327209,-0.0296028282121138,0.000718400641365
93,930,0.00645019410838,9.968621910952032e-05,0.0017090503478084,-0.0249599532101283,-0.3960853401386376,0.1451684921818276,10.318603533848076,0.0634984342977182,-0.0354319321572174,0.0060825975239279
94,940,0.016427470422162,-0.0105206303800039,0.0309166539955812,0.0114037899097117,-0.3576357041569373,0.3810045835629372,10.365803922919932,0.0839031552788074,-0.0049976528056725,0.0981624511899556
95,950,0.0149441760338188,-0.0369103069984614,0.0214997369193937,-0.0054311246588815,-0.1593334606550039,0.3044235587413508,9.896623957454077,0.0736242146603585,-0.0378929215622343,0.0507353155521463
96,960,0.0215628705760657,-0.0171726772158745,0.0008411240346218,-0.0157599386272699,-0.2725196917935217,0.2331088866824191,10.44018690543723,0.0747808564316703,-0.0300454566692148,0.046128121832263
97,970,0.0108895014503615,-0.0103902247387841,0.0294758980468383,-0.0060678087964389,-0.1171421118681008,0.0488874458971208,9.977017188905082,0.0838172133771647,-0.0299150850129623,0.1181627094301047
98,980,0.0319577012918775,-0.0071858578620192,0.0176682316135312,-0.0178645494483866,-0.0809249201549631,0.3004297737281863,10.160069691418084,0.0824700805885845,-0.0563093102865622,0.0661602321751287
99,990,0.0080535190209803,-0.0243865074288528,0.0211286771806802,-0.0082941003310174,-0.114130955626154,0.345780539293371,10.566194493029382,0.0660458358858702,-0.0290521520932817,0.0587319319072527
100,1000,0.0129796558216329,-0.01853210302206,0.0133290120321093,-0.0352072696327468,-0.3076131659640033,0.2206629757301209,10.517096984367203,0.107398188607019,-0.0376005069071316,0.1048136651533479
101,1010,0.0169035397179819,-0.0154810385889413,0.0154392702511037,0.0012654477799813,-0.317077983295828,0.2853774569669898,9.857197654204985,0.0558618654980899,-0.0507501311341306,0.0419991070932757
102,1020,0.0124648377339984,-0.02182061512025,0.0119428176216127,-0.0319376771047413,-0.1600601780406905,0.3432099776035748,10.736545036977462,0.0721919698294834,-0.0235704449667896,0.0200229529548594
103,1030,-0.0115301067115152,-0.0274295262899559,-0.0049193056958988,-0.0168548465583617,-0.1924895798673846,0.4466598912464298,10.260044171361,0.0968526024377145,-0.0359211912166911,0.0700459632367268
104,1040,0.016890658818257,-0.0370026110035323,-0.006027892506818,-0.0106662416596665,-0.1679285017814008,0.2522259140845403,10.517351781576965,0.0770144086175109,-0.0331951032739374,0.0857238398020946
105,1050,0.0204218311612004,-0.0172001150318079,0.0040570805753092,-0.004741040892178,-0.3984272216856797,0.4150003757938018,10.072357271984291,0.0980319998815629,-0.0367196875624767,0.0696535081962424
106,1060,0.0335703516888555,-0.0251787394273791,0.0154307315571811,0.0008374711599319,-0.2919357508902073,0.1647748822909404,10.379619272895226,0.0783116039085712,-0.0324091764986771,0.0188789818765347
107,1070,0.0132553401114248,-0.0207422293684771,0.0106816088369681,-0.0235869080919041,-0.2261962786256156,0.365007780693196,10.13120274655084,0.0692836959981941,-0.0227648912514869,0.0457432451956527
108,1080,0.0060087477912681,-0.0242033670892438,0.0252806138823447,-0.0309935280044593,-0.2003538551229716,0.300916248959006,10.504063569465748,0.1044880550702951,-0.0327622648365042,0.1039496964765924
109,1090,0.0265118373875354,0.0011213021366404,0.0101576788434867,-0.0153981083684435,-0.3467827789729149,0.010105820990512,10.022462085272393,0.1132089429115689,-0.0365160753092991,0.1321256065175787
110,1100,0.0125203666104868,-0.0040114896262576,0.0249648534184282,0.0001226696554862,-0.1701535527042297,0.0645411318225777,10.195635433518223,0.074865921537794,-0.0418118845724489,0.0605333304739041
111,1110,0.0103139585702896,-0.0052362955521882,0.0043303591405043,-0.0309895041432069,-0.1887359460842612,0.3311986271511284,10.54445264707776,0.0576673715377817,-0.0513350773890431,0.0969359349563721
112,1120,0.0429038579747536,-0.02463606053122,0.0157519131403655,-0.0172137883668998,-0.1092909261474147,0.2298286726589415,10.169782188406112,0.1173811233282273,-0.0344374539765532,0.0668015116012273
113,1130,0.019929083636795,-0.0145331398861909,0.0104109809143449,-0.0065369767849932,-0.2980483809227167,0.3875593019716854,10.311849936644604,0.0862620281673109,-0.0394978584398925,0.122801926143062
114,1140,0.024280279592165,-0.0184790024877314,0.0195936882706017,-0.0057327284372158,-0.3918391789299384,0.3982579388001307,10.021880016888618,0.1143970944630329,-0.037317865371824,0.075434136589829
115,1150,0.0114042260347225,-0.0251901627118923,0.0225059160363685,-0.0090164494883203,-0.1444815427834773,0.2183829471318184,10.299533896015944,0.094504736680143,-0.0491226820743777,0.0936214559912182
116,1160,0.0017798093985613,-0.0096224536887573,0.0173076115123946,0.0032767670167476,-0.3811547021106048,0.3690645413603013,10.416541913681405,0.1359121882394225,-0.0370787645115462,0.1290665642875378
117,1170,0.0260340926040063,-0.0281337384117456,0.0305444898457384,-0.0146256793240817,-0.124905360088092,0.2723829142155212,10.142288348769087,0.0553763744199663,-0.0472213442019602,0.0696796298674137
118,1180,0.0191805114572977,-0.0117731635007008,0.0094971676986884,-0.0026265326848906,-0.4411501513021541,0.2940224095855296,10.028504663708784,0.0628725178652478,-0.0456768922586605,0.1092100373429489
119,1190,0.0280735615127087,-0.0266186646852419,0.0216768611746487,-0.0266255039239275,-0.2785300707032884,0.1521578222605752,10.134497642459248,0.1259955760557641,-0.0416556492231611,0.0649442403227225
120,1200,0.0109172196048756,-0.0396157742464846,0.0222980621162534,-0.0114404953010036,-0.4497902607573842,0.3888742646939847,10.486333853207729,0.0800974724570324,-0.0433681645485056,0.1070991333809062
121,1210,0.0103579457850317,-0.0127656430237074,0.016722186843507,-0.0102032794561307,-0.229197240256788,0.4030766014957425,10.268228364751195,0.1308687786171426,-0.0672551946936987,0.0856001832603372
122,1220,0.0128092394895701,-0.0118908842828674,0.0038781556761,-0.0349748448923156,-0.3885623932126716,0.3557234900352358,10.045387770666055,0.0945257509898672,-0.0322831507385827,0.0385393542607456
123,1230,0.038600470967162,-0.0045987003898765,0.0066701135744799,-0.0133410006117685,-0.1709234182771818,0.305115546419465,10.621878458796706,0.1154961486260878,-0.040008455907249,0.0779704174796259
124,1240,0.0180770363864541,-0.0269264015488397,0.0100576340882228,-0.0182512546467222,-0.4226896984320977,0.510009521006537,10.259191229133824,0.092250597847564,-0.050134369192831,0.0977812134641852
125,1250,0.0179898649633121,-0.0141961296949645,0.0289254235157536,-0.0187645415472371,-0.2297020570543294,0.5489139072107212,10.227545220719437,0.1478587494923571,-0.0234056083316241,0.0781070432716812
126,1260,0.0283429998546572,-0.0188875559611213,0.0215614799666853,0.004995692955932,-0.1165447897273932,0.5120361895627991,10.114428777945124,0.0708266887198142,-0.0411263806658302,0.0901498280397011
127,1270,0.0315783970032986,-0.0181713861860097,0.0051446577950009,-0.0152015925829162,0.0896428556186503,0.18044834949944,10.41223925235299,0.0553532370212388,-0.0517673513794969,0.0955475439988295
128,1280,0.0450584482855693,-0.0263000140585347,0.0133697691252513,-0.0191996961940832,-0.1999900761145513,0.2791165082864144,9.939312536320514,0.0990745654819692,-0.0623512040210911,0.1222714931982514
129,1290,0.0262292768676947,-0.0178638048322308,0.0133000083059859,-0.0185085629070073,-0.3030790580479416,0.2518941091727057,9.794035837941562,0.0899942983186627,-0.0449670487818372,0.0989209827708572
130,1300,0.0104404790863878,-0.0366365603304416,0.0160382806072423,0.0064610863090308,-0.2122491977970998,0.3482178600380414,9.895256387903324,0.0812560442333373,-0.0280796189125355,0.1058601878142624
131,1310,0.0209386323525636,-0.0051139124363379,0.0110701114957225,-0.0042672455109978,-0.1292123170757454,0.2692529717995887,10.223325117417705,0.1086920972806265,-0.0586179502998383,0.0718717448202765
132,1320,0.0102652692837575,-0.0262715041199587,0.0195514827442501,-0.0222457399846417,-0.2510443439876868,0.2904668661894999,10.374826476921816,0.0985036442764001,-0.0404831655131993,0.1509889051365712
133,1330,0.0016175934543463,-0.0217713502301339,-0.0035347630783062,-0.0249768024951536,-0.3739372851312966,0.3708199858227008,10.047703632763636,0.1012542647959821,-0.0423787929645624,0.1190836787981575
134,1340,0.0097626723092835,-0.0474570772674628,0.0167526764882899,-0.0266024847557936,-0.2354240963349698,0.3727896168961839,10.309158026237654,0.1268102573615693,-0.0492879305775468,0.1188932169352166
135,1350,0.0111259490394969,-0.044746990121166,2.8016249507173885e-05,-0.0446748056559172,-0.3126540388487657,0.298414365717121,10.368297603933708,0.1146634401215814,-0.0369444004639554,0.0866478891484659
136,1360,0.0163344479528178,-0.0148430283666024,0.0097130855225972,-0.0331385903493927,-0.256321716716361,0.2993599870875045,10.459913469111513,0.0775410781026084,-0.0380781145223125,0.1136126638578646
137,1370,-0.0011890671277055,-0.0390446408045016,0.0208199280041622,-0.0384459391262863,-0.3960970235315219,0.3330898823570635,10.226269504565003,0.0723380608241367,-0.0498944567725536,0.1297219000179261
138,1380,0.0089197194958751,-0.0595768036041161,0.0108410531584758,-0.029635771435418,-0.1075495218217824,0.438839390974742,10.949382199818611,0.0987395604623013,-0.0448707404122293,0.083028407818805
139,1390,0.0150096485735987,-0.0238422583385373,0.0313594353106209,-0.0026960900862795,-0.148915173852644,0.3233729729034654,9.845541745364857,0.056861830859436,-0.0437859078112696,0.1020136756560659
140,1400,0.0090081524537173,-0.0728753494022454,-0.0091675427567484,-0.0443573921781475,-0.1488637149759262,0.3766174303950957,10.338877551142255,0.0866664960367223,-0.0499063867104406,0.0573080298657125
141,1410,-0.0129589347595767,-0.0477581891264209,-0.0085096829034826,-0.030894836538649,-0.5489082545553676,0.3396133115263799,10.289060293582718,0.1380578026635179,-0.041861512296263,0.1112693348018761
142,1420,-0.0077375142170231,-0.0613598180285922,0.0129079946531711,-0.0453448817818242,-0.2451824059247409,0.423916165823001,10.243611879843206,0.1009169811104418,-0.0509721288513924,0.1228194546858345
143,1430,0.0021498891048934,-0.0388312896111227,0.0108957627404729,-0.0319251664245233,-0.1571123448958703,0.4383771717963812,10.048283475110232,0.0810958324368628,-0.0332670236680537,0.0733291089886596
144,1440,0.0056800508564597,-0.0448078344885129,-0.0062881555179233,-0.0444057893311189,-0.382613462865454,0.4714676628493332,10.117381059425504,0.1341128583604305,-0.0425790669219146,0.1198739916147971
145,1450,-0.0278148301566049,-0.0424983665664187,-0.022702948549158,-0.0669548709131573,-0.2924284137383781,0.3313678636566632,10.426116998098314,0.0683479708018774,-0.0579284075807882,0.1250174893296441
146,1460,-0.005624095188103,-0.0524847298753038,0.0013519890944348,-0.0403025543039255,-0.2184440763196934,0.2887259518195951,10.246992327608858,0.1013810596232308,-0.0475720566322825,0.1341500537907012
147,1470,0.0251668076076033,-0.046575970077826,0.0118528500555988,-0.0397284313144184,-0.2689821973019863,0.2974333340305505,10.5740487486867,0.1294101892288447,-0.0538335778076172,0.112443632196083
148,1480,0.003749240496042,-0.0509225912563506,0.012136203943106,-0.0511518572638604,-0.1830691723658185,0.4502380848348214,10.23427657520773,0.1415408798933038,-0.0275496919998611,0.1032477277730686
149,1490,-0.0134602254374255,-0.0487488250898372,-0.0076643160148489,-0.0584363288747704,-0.4156460296127028,0.4039309731660312,10.769790823903966,0.1065218553613845,-0.0581456804178699,0.1105325946847404
150,1500,0.0092099157107018,-0.0383710463517909,-0.0129071203782515,-0.0387163340905733,-0.3384013321929559,0.3483382273395262,10.118170822544885,0.0960646781756537,-0.0566311566532231,0.2027710228711167
151,1510,0.0053563765348573,-0.0567617564168916,-0.013960869048109,-0.029775284003705,-0.157142592349502,0.3589113259963464,10.385019945501522,0.0958502574133021,-0.0499752949231767,0.1202526616131904
152,1520,-0.0151795999732453,-0.065202904606603,-0.0182022515678954,-0.0488421755141462,-0.2899083864418798,0.3368136156320864,10.152554069210366,0.1108000126461475,-0.0379950326676036,0.0874411476930787
153,1530,-0.0083223028907783,-0.0544586160880014,-0.0038782380432608,-0.056791581532292,-0.2753216564011927,0.598871581260361,10.284930775028323,0.1316700179714439,-0.0379099273742476,0.0782001688899819
154,1540,-0.0148868974928173,-0.0421032380668028,-0.0051319267688717,-0.0746412873658041,-0.2677923961511503,0.3155499640209808,9.968863628951835,0.1037201839309268,-0.0547777200931788,0.1959509856763988
155,1550,-0.007707340160188,-0.0431479153736552,0.004063216012119,-0.0356407556768654,-0.1458476460085393,0.330055257737121,9.838076158645569,0.1080563026898248,-0.0536231555409598,0.0797030490271043
156,1560,-0.0108693176290004,-0.0567484902478089,0.0065016617956597,-0.037297754822891,-0.4310806562506762,0.4723506508079273,10.387814891198223,0.0902311116364251,-0.0446308948715347,0.1130742072184429
157,1570,-0.0025176125226355,-0.0527547312540043,-0.000844902024559,-0.0408166029724486,-0.3455674512957041,0.421290805031365,10.152400159323149,0.1099730009047757,-0.0548856231825386,0.1440993608942372
158,1580,-0.0145001944342709,-0.0538116791364878,-0.0226657713551414,-0.0584472660430663,-0.1523834951437762,0.3990171918836441,10.309840962790062,0.1057253882880699,-0.0281665749288092,0.0586376142043253
159,1590,0.0033418516609051,-0.0417614863928159,0.0120927910359337,-0.0364573652429958,-0.2455638411895971,0.3873461032694109,10.173757600792714,0.0740688016313787,-0.0608033815971641,0.1634570412916968
160,1600,0.0071816531604379,-0.0430579499130141,-0.0049829884676104,-0.0371084287402682,-0.1868100932660936,0.4617739947786389,10.407514511918029,0.1065767914176111,-0.0592221837744862,0.1065263195369878
161,1610,-0.0057056318991943,-0.0557540437681208,-0.0025810421164762,-0.0449210377145166,-0.142910703648758,0.3479241571486168,10.421043801922435,0.0791198584631154,-0.0489719297741026,0.1594908072078356
162,1620,0.0052219476563247,-0.0545084576294875,-0.0037779730326805,-0.0560108136247665,-0.2490931411331684,0.6509346499831606,10.25039324529846,0.0997801967438461,-0.0443676154159597,0.1278658235845984
163,1630,-0.0100887161326194,-0.0434378428701348,-0.0043983072128951,-0.0374634777487743,-0.3577531145659979,0.4516565063893384,10.28018963102345,0.0921284226262422,-0.0407080666070515,0.0799792057150214
164,1640,0.0087636702538205,-0.0612752317152635,-0.0010953142416946,-0.0439437797245203,-0.2600291795445501,0.4088995573400829,10.181448148642302,0.1199570002755284,-0.0394180122397852,0.0887423954821831
165,1650,0.0137477961444328,-0.0369417370906944,-0.012896663817709,-0.0410810152199409,-0.223347843695175,0.2771751308979699,10.278048710207145,0.0856256649447767,-0.050535596714314,0.1433734109170264
166,1660,0.0071932394272348,-0.037209098586041,-0.0082334604498453,-0.0429195189027954,-0.2238580764656423,0.360858199984445,10.24846529085363,0.0568258930420506,-0.0613386503171761,0.1027448323459321
167,1670,0.0086507830695751,-0.0572243997434144,-0.007993398664362,-0.0221882457634086,-0.1250292790039077,0.2832289544800997,10.163847507114562,0.0702834258202591,-0.0682881279096305,0.1314319324473146
168,1680,0.0269688805312616,-0.0453420598204113,0.000127503933222,-0.013869074183107,-0.235870152117794,0.5266555921862524,10.43398147916512,0.1186518263468964,-0.0485948827170652,0.1028739953774852
169,1690,0.0284872522526346,-0.0141418282435368,0.0071304147680404,-0.0368515147383262,-0.379074582551166,0.4621584068018047,10.238455182908943,0.1041319949347194,-0.0532785737061572,0.12571943889556
170,1700,0.0082384956289755,-0.0394613627551783,0.030384442722285,-0.0045037778183089,-0.4769822339310069,0.5057041458226265,10.36203611406759,0.1173034162956523,-0.0475869949588363,0.1477371712516015
171,1710,-0.0043818098455324,-0.0451427571948577,0.013856102578014,-0.0206845543735574,-0.4678107319562992,0.5093170135763258,10.39031381217908,0.0791757593551717,-0.0390730462860051,0.1138625432179654
172,1720,0.0157137132352515,-0.0290618666363017,0.0198374219757131,-0.0419916183534579,-0.3564081331641666,0.4220442861569037,9.924025065571906,0.1088972954170843,-0.0511131573730119,0.1597390081286445
173,1730,0.0061872384733009,-0.0400907256518817,-0.0024828419646992,-0.048650788284033,-0.305014237277699,0.6008121751307691,10.085637416644095,0.0553847023687357,-0.0534505022759756,0.1223059836261611
174,1740,0.0051331744994005,-0.0331462820897079,0.0112286896081561,-0.0216164277679677,-0.2741103097478603,0.4015067000052977,10.225550568672553,0.112297088159578,-0.0415137722382379,0.1623185237260636
175,1750,0.0138573220313975,-0.0498229329958846,0.0084436260155064,-0.0241158362201813,-0.3657375434531198,0.4832067328879964,10.039007957025424,0.1217002555195316,-0.0298869632156752,0.1258839551879644
176,1760,0.021305983254633,-0.0138845808540395,-0.011073801877765,-0.0245442027626635,-0.2442188263113021,0.2677068960558738,10.079774426732213,0.1027110772458049,-0.0266606585871927,0.1139854903431702
177,1770,0.0067342733549279,-0.0436344510595542,0.0071314038132003,-0.0374157347853886,-0.2252526004849922,0.5004440152234679,10.231393887421318,0.0990141490906797,-0.0606546932463635,0.1591908159113895
178,1780,0.0225159288351323,-0.0509239109816425,0.0178119247695901,-0.0421440753705627,-0.3018301544716402,0.1965776637896682,10.112453820053467,0.0906258206971706,-0.0437598309592194,0.1558526936000406
179,1790,-0.0105143137624963,-0.0429440838610614,0.006716170837244,-0.0343717987366388,-0.3522316572288958,0.4533547079283195,10.032194653332075,0.0693768298238268,-0.0639260096730168,0.1185478994153662
180,1800,-0.0049118849066665,-0.0447414625453804,0.0064524103159808,-0.023255999036504,-0.2958787858254695,0.3343012084212861,10.22527612311664,0.0730538591550133,-0.0646023777703264,0.1916187290723519
181,1810,0.0088528923041201,-0.0299146131571472,-0.0100713642505589,-0.0418025016207297,-0.4034791759230869,0.4602936200066477,10.094756770895176,0.0717443563232399,-0.0452493279818956,0.1008487345119592
182,1820,0.0100777776981735,-0.027479334041836,0.0070201664580871,-0.0143435426907171,-0.379686211402523,0.5783999740845283,10.149345283713654,0.0918408418419337,-0.0459151490797439,0.1200013672467154
183,1830,0.0176728688679441,-0.0410682189769425,0.0073145431361488,-0.0345157191896605,-0.335619153081589,0.3053139916479908,10.12128677642101,0.0789477637108438,-0.0416669859740364,0.1021442602007187
184,1840,-5.235144436941536e-05,-0.0493206300035789,0.0225827231738785,-0.0154338042783873,-0.3496243089792932,0.3791306291896377,10.267255553050708,0.101060538681017,-0.0603079817374135,0.1539608031936494
185,1850,0.0100329978286151,-0.0282486846574237,0.0264623005479994,-0.037149618732256,-0.1552085863323442,0.2912502142768484,9.802677736135022,0.0711116536954184,-0.0461586113021119,0.1457063240701754
186,1860,0.0095879583907746,-0.0543216874929044,0.0065039270227791,-0.0464679881296108,-0.5313229181098518,0.4131779402907358,10.062678029136846,0.0713402197791556,-0.0393076577239817,0.1331221669807868
187,1870,0.0197466512149235,-0.0339216603372664,0.0166742752626822,-0.0556534158022873,-0.4099127260059622,0.5607613994064833,10.260277728621835,0.0921389272607153,-0.0506125240051775,0.1494424927598687
188,1880,0.0194255281512119,-0.0347200601085406,0.0129358691324181,-0.0236057973186065,-0.2383608825226113,0.5197988387768684,9.932938540497538,0.1202580853988527,-0.0532076239937029,0.1054168112842137
189,1890,0.021607628198366,-0.0377309038317221,0.0043923331528524,-0.0496867273969899,-0.3457185782214645,0.3348340587534931,10.173069899902284,0.0597791357092367,-0.0465392183517223,0.1165290807114526
190,1900,0.0468124967309723,-0.0417961324322765,0.0240606456416964,-0.0198108358654223,-0.3190772593947189,0.5148585952506826,9.984562346421038,0.0503387643135083,-0.0633483159755097,0.1100970453421294
191,1910,0.0102837806717387,-0.05729639058479,-0.0069550275567363,-0.0210930739306227,-0.3027496398978017,0.4788211444782898,10.035243837910595,0.0788094513443914,-0.0513482055648371,0.1342781332177509
192,1920,0.0213807248812356,-0.0365792066873882,-0.0004567810979518,-0.0193834696623747,-0.188812334174927,0.3377562960644875,10.382087936746176,0.0541798240427419,-0.0486519387523267,0.1338471771572761
193,1930,-0.0245194951896672,-0.0402151812248191,0.0106008361694762,-0.0505214976034575,-0.5466863746798212,0.4026698965351671,10.210006295154924,0.0705665194029286,-0.0413287115293569,0.1439289251859291
194,1940,0.0461356479074619,-0.0238825987761992,0.0148328935243747,-0.018802244928953,-0.4873477158361465,0.4161621898461694,10.063071851105256,0.0719105169757842,-0.0529725083997799,0.1387024893254077
195,1950,0.0089744726787634,-0.0436375346820984,-0.0076137536112776,-0.0580183047511983,-0.4031895396104221,0.1813005978306257,9.910885939043974,0.0786439395829623,-0.0421649023108623,0.1668742966464549
196,1960,-0.009190571877452,-0.039282403643423,0.0017762604196367,-0.0270483744670152,-0.2024352781257667,0.5500392941631833,10.230805788055845,0.1014297604024521,-0.0538013281475352,0.1176452834879798
197,1970,0.0167609565557903,-0.0411188923891071,-0.0109223494703307,-0.0311810605506708,-0.1602564203426703,0.2961681212813559,10.188570744269512,0.0729031152981114,-0.0675774728883606,0.1489644093821336
198,1980,-0.0021637666955645,-0.0251369029818282,0.0117570365126244,-0.0513136265326236,-0.1711446946248135,0.449199153232593,10.375695035199332,0.0713941055718307,-0.0420047306960302,0.1714483705581799
199,1990,-0.0039221769628813,-0.0372319071341237,-0.0008707402808088,-0.0512006856139122,-0.2072321601093315,0.4753223928961953,10.583841461882582,0.0554986349105307,-0.0442672228525764,0.156551226175768
200,2000,0.036704202677584,-0.0293267566073019,-0.0064523931963092,-0.0344338322386069,-0.2995241799011706,0.3806968501326734,9.78260070904535,0.058804268220677,-0.0477391700529702,0.1608087807221263
201,2010,0.0089148220652916,-0.0471083332412481,0.0178856627977214,-0.0359658532618876,-0.3863993975831405,0.5471445502846091,10.178321304526262,0.0823943555046087,-0.0376705307890616,0.1560460580915904
202,2020,0.0253149475304745,-0.0204066136258721,0.0197152630091728,-0.0210290442690684,-0.2579695146096933,0.559300529604416,9.939180859598084,0.1142728005557883,-0.0600856361119789,0.0903476113170776
203,2030,0.0044434083328148,-0.0321530441211411,-0.0170645247933996,-0.0305477155760193,-0.2978302704295686,0.404264028081837,10.685356706804528,0.0693966688613483,-0.0478598756337095,0.1245110440451857
204,2040,0.0194941650895144,-0.0522185856318966,0.0192078471913901,-0.0563243135375526,-0.45178533395721,0.4185713077242903,10.259549072900237,0.0734517545742632,-0.0525012905800458,0.1913054969810533
205,2050,-0.0164063056767154,-0.0430814048667435,-0.0250403550026088,-0.0472778084825794,-0.2002934858068457,0.6186902132547476,10.32225086298207,0.0645471923353666,-0.0363904375184536,0.1274079232453695
206,2060,0.02824578746561,-0.0388878194353515,0.0049544285412864,-0.0445461633125751,-0.3698719378347403,0.4642788832596892,10.039567672017723,0.0618695185740694,-0.0502562242878392,0.1494341190796562
207,2070,0.0120498772737275,-0.0395493120829087,0.0122568042627598,-0.0323753323285649,-0.5468320325475481,0.3014320872181335,10.033110837144868,0.0876417974544811,-0.046881002858087,0.1268986225450241
208,2080,0.0109097993719225,-0.0295018495033653,0.0207563566073223,-0.0298494610899874,-0.3933641497912794,0.2873487955751684,10.262418066991556,0.0564509943923911,-0.0429954241932321,0.1443252379051486
209,2090,0.0149911251620082,-0.0568647797432256,-0.0005967224103561,-0.0472734966972539,-0.2418557799892896,0.541746672945177,9.929718636728552,0.037847274991791,-0.0429849226284314,0.1595803534569226
210,2100,0.0339812106334464,-0.027449996661504,0.0210086433695582,-0.0161974626805877,-0.2282948795260338,0.4272884102742278,10.307645041847447,0.0538678453715942,-0.0586504610217101,0.1349291089799942
211,2110,-0.0022136559307819,-0.044030107299,0.0102829985684953,-0.0205120411756328,-0.3972401578362424,0.5536367804177635,10.053418566143334,0.0578056748222434,-0.0450318148862714,0.1344096525736278
212,2120,0.0238713792654667,-0.0445470910846407,0.0191447786656366,-0.0202404458426927,-0.2706774429845349,0.4988964031006327,9.812416002173409,0.037427145825166,-0.0452251607671974,0.1657749735311177
213,2130,0.0217370521904873,-0.019523997148819,0.0178544506976484,-0.0203313083533923,-0.2084590495668504,0.4878721033517448,10.03513593495246,0.0752136578406372,-0.0613442253191625,0.1290721929097016
214,2140,0.033236635596327,-0.0173302392878489,0.034960355465646,-0.0225954602996857,-0.3130180299455279,0.4825632144982243,10.130499848659742,0.0625147293636196,-0.0462707123570401,0.1266450131703803
215,2150,0.0433846111149094,-0.0328309112674435,0.0178195206052125,-0.0262246696423226,-0.1769611745424857,0.5612737541917231,10.34875030141982,0.0468513900228278,-0.0308723199889595,0.1921443536444249
216,2160,0.0542677256784979,-0.0431688551160281,0.0440440527706344,-0.0170839964286145,-0.3455163571599912,0.4243388786403455,10.209821244241883,0.0376871002766033,-0.0412715380402134,0.1559926405181846
217,2170,0.0335370990428701,-0.0244546419997584,0.028951298147706,-0.0369138112946049,-0.2265940768691839,0.7009192904112381,9.942958885456877,0.0422693362853688,-0.0648619797989359,0.1699611471787831
218,2180,0.0394047547910159,-0.0011527691912306,0.0440482915352534,-0.0034132702992761,-0.2617852268858892,0.486578350635642,9.912977927173944,0.0271646376551264,-0.0426401970856742,0.1224694720411789
219,2190,0.0441519809746085,-0.0036917727962292,0.0326144213146136,-0.0237627408463145,-0.2931588355271865,0.4927384457397914,10.552414198617688,0.0417240205076728,-0.043820647713585,0.1554202143949664
220,2200,0.0421850526539411,-0.0272710835832857,0.0466806711272278,-0.0122660705472143,-0.2730768370789715,0.4478462756997898,10.175560537081058,0.0696672738539152,-0.0381151761797994,0.1754088342031429
221,2210,0.0409390029192197,-0.0069387265996521,0.0336742350537262,-0.0112104957231765,-0.2125320848509757,0.4508365561639984,9.695844575430687,0.0557802551600075,-0.0575145816609387,0.1587551752949169
222,2220,0.0490115790365369,-0.0231030109811277,0.0180018037400076,-0.0250487844295024,-0.1802178059746218,0.538959657531535,10.073481777586789,0.0098255906369591,-0.0501043972643659,0.1829008206756168
223,2230,0.0425038952614121,-0.0156182532074069,0.0183495954533716,-0.0063445451707098,-0.2187637410073873,0.669291241342238,10.10887192580002,0.0752106013602927,-0.033846023520574,0.0918811843143089
224,2240,0.0433480032067161,0.0035596758043859,0.0525856720179903,-0.0104355236201791,-0.2422065437306163,0.4674136629445689,10.184353914949106,0.0321574088743088,-0.0321486823969902,0.1409656525042058
225,2250,0.0331518655918399,-0.0106285893096438,0.0262948603898393,-0.0305917662759342,-0.4801588833701884,0.4150219216363699,10.293326003826309,0.0350458531202452,-0.0712498155554708,0.1692933865502348
226,2260,0.0571789214072914,-0.0423664337536756,0.0360726257651614,-0.0236044028614565,-0.3454056204472028,0.5735743403913961,9.792743864861986,0.0353338842468343,-0.0555424049159471,0.1880177557813225
227,2270,0.0415171696786569,-0.010517051440228,0.0594234813337434,-0.0028799852308255,-0.3706134030472375,0.3997933703568485,10.05071420133712,0.0397666598097546,-0.0562581853427461,0.1573629069238612
228,2280,0.0435622098730495,-0.0056588253633807,0.0565575234322593,0.0122590430183751,-0.3532247853354063,0.5954783377377454,9.971503212151324,0.0413260664599242,-0.0519049037544474,0.1127837217624838
229,2290,0.0625053539943913,-0.0224866557383226,0.0507690778397409,-0.0067042040649887,-0.1873990342519469,0.3732298431336237,10.140450809905406,0.0287819604448436,-0.0510542692786302,0.1124678832431453
230,2300,0.0655769925527074,-0.0078477330547253,0.0702797350341483,-0.0137556562997149,-0.2074191173224273,0.479866352399448,10.116786695243526,0.046056661473544,-0.042214594833922,0.1493958862595089
231,2310,0.0474898204879229,-0.0156612080813232,0.018970022060656,-0.0094516327314361,-0.2160809899363224,0.6108098561760568,10.18743718098707,0.0496441972780723,-0.0453107007277681,0.1307020232292058
232,2320,0.0454658327536393,-0.0128759166761552,0.0507363171588822,-0.0015695168947101,-0.3391790104121927,0.4853904271941734,9.81702573972322,0.0647692423365161,-0.079482745562591,0.1504677033110402
233,2330,0.0586481995136808,-0.0141556130641038,0.0423699231610375,0.0031153716838956,-0.3845396882956188,0.4342745467498011,10.07241908366685,0.0097786852951971,-0.0558116453896764,0.1473929469737661
234,2340,0.0437910251570725,-0.0127164489499839,0.0443408620807227,-0.011560396429997,-0.1357466096848266,0.4280108242400878,10.107914122349577,0.0197221757685957,-0.049499679120013,0.150267255990926
235,2350,0.0375952980302405,-0.003403796169553,0.0312858633286197,-0.0066949309125972,-0.2190886499452048,0.4362371177654573,9.904478169160704,0.041078483998988,-0.0266499988753657,0.0944650872374443
236,2360,0.0371945203840761,0.014381927126956,0.035268614229367,0.0134739186046834,-0.3187779692860488,0.5429074046852786,9.850036566058956,0.0656568899802949,-0.0435642397442324,0.1480733911329224
237,2370,0.0499442929909266,-0.0140878309213382,0.0671146531331278,-0.0121565490599731,-0.1804984543680892,0.4930255723879421,10.260120058788653,0.0316501331616115,-0.0548003645547325,0.1766560439484577
238,2380,0.0512814520062156,0.0125359540818125,0.0403485519549668,-0.0114973332587429,-0.185195578569022,0.625793730877361,9.991463597369735,0.0633332287269535,-0.0446075355753089,0.138594844957294
239,2390,0.020513878107355,-0.0216912692997172,0.028310306910589,-0.0263527154983252,-0.3142714568183772,0.4211454026985281,10.073373180415247,0.0282065089579501,-0.0333323231633967,0.1558705524991906
240,2400,0.0298079790266842,-0.0035433229215234,0.0571748548942178,0.0004543046087462,-0.5558637621503406,0.2877897179819566,10.273576607253316,0.0331493778189015,-0.0422345072951913,0.1699844578748672
241,2410,0.0554707413135033,-0.0136975200200957,0.0414714891816025,-0.0002534885045463,-0.2272016955019151,0.4618744675932562,9.882460907812051,0.0523975121980401,-0.0457062316971783,0.1826234282651037
242,2420,0.0339829579772896,-0.0337546558143508,0.0288447222613964,0.0039667424029013,-0.0512461036464763,0.563955437005317,10.056632091948588,0.0296166264358495,-0.0523251060693764,0.1405119124728025
243,2430,0.0305283481248295,-0.0268498816156131,0.0218057996911022,-0.0152087112097641,-0.3477012201185785,0.4095565581840919,9.921241841774876,0.0478004252686018,-0.0353319008673902,0.1369678696292266
244,2440,0.0232661774596384,-0.0301262586265719,0.0139149400863263,-0.0127643862031964,-0.378329443993203,0.5814634294803863,9.919739310856926,-0.0085115721273512,-0.0367942529641713,0.113626774438111
245,2450,0.0288408787283665,-0.0152051509006122,0.03955907807673,-0.0045363791580362,-0.3524689810269097,0.6944392159384822,10.132906422567396,0.0618658044357901,-0.0482820440104968,0.1055246181101352
246,2460,0.0247256362763485,-0.0309790923021644,0.0215390835177565,-0.0077124274139703,-0.2004164523850253,0.5523101758833445,10.354148824127874,0.0576441593130806,-0.0422655969747098,0.1689008268600884
247,2470,0.0378995965979583,-0.0206901066456182,0.0367793019517133,0.0001934198264254,-0.2408436767373449,0.5911199179273321,10.120676931373533,0.0066214483333052,-0.0654674878926186,0.1824589463434774
248,2480,0.0182418972653397,-0.0343127711956423,0.0176747708852197,-0.0369816963276547,-0.4015866993396608,0.52352172800201,9.75284871766263,0.0359753772907556,-0.0467789310613704,0.191532665983691
249,2490,0.0141024750324197,-0.0313370494190187,0.0311459533607568,-0.0054897915405644,-0.2783032264228036,0.4391093151530139,10.309034288312848,0.0422758902500938,-0.0434372599109001,0.1507095313402965
250,2500,0.0323495648080095,-0.013788812409895,0.0404275907447566,-0.0224968581798634,-0.3257129100240341,0.3379860091528642,9.910276703456235,0.0306977053696707,-0.0340703957068828,0.1657626965913274
251,2510,0.0641401336887837,-0.0312693778060201,0.0530883818301258,-0.0127622823830402,-0.3120788044875328,0.5504979695538498,10.135744622775189,-0.0155095556761629,-0.0515554251331137,0.1316724161728414
252,2520,0.0407470645097678,-0.0204325621965898,0.0394234344440163,-0.0194280673968963,-0.1231980836852879,0.7114749117066627,10.0857862873072,0.0006228313337254,-0.0431316942364989,0.1675193140587297
253,2530,0.0307554481394477,-0.0236936006209654,0.0369107160659585,-0.0069630732752474,-0.2930412201515051,0.3725365735190905,9.503533141263702,-0.0040207201023074,-0.0379177666132437,0.1694763181663066
254,2540,0.0342055234685956,-0.0110416047857384,0.0410622548556241,-0.0168539418000969,-0.2935736002212842,0.4537160901091657,9.612675833228693,-0.0425750721509275,-0.0464569530179309,0.1040757442841054
255,2550,0.0342162609329677,-0.0215064105531024,0.0302983819277351,-0.0172752197566743,-0.3159602543759802,0.7210817657665163,9.862101754864886,0.0170802173559794,-0.0499291898388286,0.1862296829077933
256,2560,0.0343668077393811,-0.0210223731294662,0.0341394785489574,-0.0250322095580855,-0.0651863094879827,0.6835480823105591,9.930712345184467,0.0115165629328886,-0.0418242996622217,0.154736155275999
257,2570,0.0444586797743755,-0.0162732450774643,0.0190819256896483,-0.0201014625842824,-0.3326256532446592,0.4198135284804823,10.16749776456554,-0.0092500978851445,-0.0430058490926932,0.146704016412437
258,2580,0.0223694441527731,-0.0379737697187123,0.0233786358213951,-0.0235217075600059,-0.1693400947069129,0.523516288804717,9.747897196689191,0.0080437571175327,-0.0534448032589747,0.1984389655966543
259,2590,0.0167165192569579,-0.0240676961980562,0.0364802442141894,-0.0074841219674083,-0.1653957223482244,0.684842770588456,9.825696081303072,0.0053553779740157,-0.0481558842087548,0.153360327544719
260,2600,0.0610466452169611,-0.0178655343294912,0.0686224178260439,-0.01440344887123,-0.4581567922200663,0.3953151293601402,10.101893701889196,0.0257749119851057,-0.0416538126980522,0.0738786358272048
261,2610,0.0495078365355425,-0.0056127781250549,0.0580964835528215,0.0090415920414034,-0.1396778848700317,0.1503325800777133,9.877225554879354,-0.0281609848888183,-0.048258640059065,0.1498793764340109
262,2620,0.0571547363971289,-0.0152269383895296,0.0300936562229804,-0.0085535455293138,-0.119908203249933,0.5808224895576118,9.537687783561308,0.0310700480537849,-0.0207828844991195,0.1068969815495532
263,2630,0.0480467433437354,-0.0072852053197091,0.0549865232528298,0.0168384568947291,-0.2741349413244927,0.3702077410115387,9.921112582869808,-0.0245261190700274,-0.0543963915236706,0.1501092951176658
264,2640,0.0559345580879546,-0.0300420681506151,0.0357512720081579,-0.0100826750147837,-0.2133830334720379,0.438127564443452,9.930470639669478,0.0182646090556111,-0.0304044854675327,0.1043031445760665
265,2650,0.0414571759082633,-0.0342497328486381,0.0388219022538024,0.0023586378169993,-0.1990037347589562,0.6980923630282592,9.862660221726792,0.0219635452510398,-0.0265384689278627,0.1580814794240266
266,2660,0.0550483048254714,-0.0141430060155489,0.0395006129697275,0.007248129853536,-0.2190528776768021,0.2730694119076359,9.855673311326026,-0.0054981510185694,-0.0267585224348021,0.124180784555404
267,2670,0.0468852602143231,0.0007379023489172,0.0406149242485509,-0.009820732751404,-0.186280839323933,0.5639984056341236,9.966322650348614,-0.0076387711332425,-0.0268977571824309,0.0955753018145952
268,2680,0.0276822347748215,0.0089841565485419,0.0534285110020147,0.0027162873838924,-0.1937329218509951,0.5010388043036932,9.89592527469687,0.0465400267605632,-0.0386792956080272,0.1160190669968769
269,2690,0.0726778153489262,0.0102845281805077,0.0476050662643458,0.0099833054495515,-0.2967834947426849,0.6062293286725954,9.59477896255832,-0.0019025273551234,-0.0188484993030206,0.1406379745916741
270,2700,0.04983545269055,0.007378812742702,0.0544770735945437,-0.008776241086831,-0.2226590443414318,0.5257331986102335,9.558344053731366,-0.0061232596457164,-0.0264394662020118,0.1840142229832898
271,2710,0.0391445380293143,-0.0070647607548499,0.031530301676423,0.0010592316164098,-0.109457815388971,0.4645751984780583,10.074972155800443,-0.0268491283001165,-0.0165286662037562,0.1371449543274028
272,2720,0.0683787056255506,0.00656476074902,0.0471839668363879,0.0021714114798042,-0.2380968939106966,0.4755172257090264,9.688351950216292,-0.0714576270449245,-0.0410333058927456,0.148415678522598
273,2730,0.0527698207388844,-0.0039505000897762,0.0774469783946021,0.0078793339391225,-0.352016593890556,0.3102140848064655,9.72987671816849,-0.0375087998447487,-0.0434111450129178,0.1292911048011688
274,2740,0.0579007320766767,-0.0031224488215226,0.0501689772917234,-0.0053422619547348,-0.2624181623386399,0.4603398118730847,9.901256302238275,-0.0061306584350974,-0.036893082343,0.1401818219062639
275,2750,0.0735362267837636,-0.0022662912772858,0.05023923060078,0.0067437077226737,-0.2950124764259358,0.6000886603057115,9.887245271300817,-0.0175382338599657,-0.0250223139869637,0.2031586960795803
276,2760,0.0500615479225548,-0.0055726743243375,0.0613410799746448,-0.0023663160075818,-0.2689826417430481,0.5521253230817912,9.984343218322731,-0.025483551705235,-0.0405899329103918,0.1402658068279378
277,2770,0.0661042640021185,-0.0034192412286151,0.0747636400632184,0.0134174136795422,-0.2046524134473198,0.4706879480507711,9.82836237088006,-0.0120997730101115,-0.0498752741879303,0.1027148408035163
278,2780,0.0411779748585174,0.0073365053897367,0.050352450949615,0.0152862962308887,-0.2784234585457675,0.5170913465382084,9.620067541921587,-0.0231118749809132,-0.0207052102451137,0.2207885387576802
279,2790,0.0673905632394271,-0.0015512016163898,0.035199693426699,0.0057126366521469,-0.2160842842473731,0.3617885016866218,9.815586803230577,-0.0502647028644411,-0.0320855411620856,0.153762396129605
280,2800,0.0576926033205772,0.0030111369960871,0.0602183140175355,0.0083827921481815,-0.1063368001795492,0.5192561026246723,9.551566605944377,-0.0470615114767102,-0.0237395800122413,0.1236523206667891
281,2810,0.0447833329147033,-0.0313595415941975,0.0294523847943437,-0.0052758366880539,-0.0613164981624909,0.4190598123503889,9.6068717016453,-0.017226216453969,-0.0308769242725117,0.1477862042186198
282,2820,0.0438383291334258,-0.0019265659439177,0.045661763347923,-0.0235550487624627,-0.1675168001655523,0.5731649844815697,10.099675553040608,-0.0361103502016019,-0.0196583913182751,0.096467804142735
283,2830,0.0591908079943675,-0.0184864699065691,0.0427602712325443,0.0173274712696561,-0.103477316922541,0.3175480597151899,9.99192873393656,-0.0416970045440457,-0.0170548435646639,0.1231858220009881
284,2840,0.0502800544675435,-0.0059367103230014,0.0549946657695071,-0.0168212411008894,-0.0387707228743519,0.5214082903538267,9.588223489108469,-0.0120749351953854,-0.0503536656563393,0.1711478869633066
285,2850,0.0546476782435391,-0.0189289797804573,0.0590431621306113,-0.0045802474674629,-0.1536548585558018,0.431618966256626,9.551388860185735,-0.0409290251822196,-0.0209913122539538,0.1724511082930718
286,2860,0.0474301547925423,-0.0204106042711981,0.027681886038349,-0.0017060066497176,-0.0013612633411155,0.4302695188190121,9.167751628740664,-0.02584550101967,-0.0366384375131568,0.1788473042192372
287,2870,0.0619495853680165,-0.0108662796704969,0.0549995059105425,0.0126310542881028,-0.1359725278545468,0.6298468384500578,9.776393954048354,-0.0517726598981116,-0.0262984938007806,0.1343062658009844
288,2880,0.0414608244489677,-0.0128351729549235,0.0306591565975872,0.0135740584317336,-0.0407052309252851,0.3306280991531219,9.536491831852084,-0.0314083665617781,-0.0353209846858017,0.1550012893547845
289,2890,0.0406787399738018,-0.0132785649158075,0.0380409487324193,-0.0073297703499972,-0.0774429361777345,0.5535529835308968,9.51929159613914,-0.0104401733922448,-0.0288771033615729,0.1477442291468833
290,2900,0.0305946208448181,-0.0219378203735062,0.0209287803672718,-0.0137672680085847,-0.1067873732032421,0.6419742185364952,9.655549742645915,-0.0361240190859421,-0.0419747624332214,0.0873265978179829
291,2910,0.0507971895825351,-0.0131580332268146,0.0427654587912878,-0.0160416243177249,-0.2457385487196694,0.4353200392665064,9.535516533342644,-0.0238365116406817,-0.0313519245600254,0.1764165358326158
292,2920,0.0670519420224279,-0.0078127680345769,0.0390873884401738,-0.0124111166507796,-0.0066396290444909,0.5726843284651136,9.657868370403156,-0.04280304635606,-0.0279798598354854,0.1969832084125649
293,2930,0.0440374234891614,-0.0344179106255992,0.0398542460247022,-0.0128635769963875,-0.0339244862206808,0.4050731441074466,9.568959025004578,-0.0296577633251983,-0.0145319145602462,0.1406923272452938
294,2940,0.0220772013021486,-0.0295890045480211,0.0101903841451248,-0.0040706626300554,-0.2721016840160253,0.5521238687325304,9.540380561566574,-0.0759530306225735,-0.0186181907218766,0.1820041109391708
295,2950,0.0233960699211231,-0.035276814975371,0.0187474094862793,-0.0333585528638931,-0.0896493997194155,0.3936071960658831,9.655482285583512,-0.0259097836363317,-0.0357624056511726,0.1043129297378467
296,2960,0.0452888365390544,-0.0122650157721413,0.0336186559830707,-0.0120884320966915,-0.0288080577883752,0.3785889525635026,9.535659374544924,-0.0183449313247339,-0.0415571574281804,0.1478637175505973
297,2970,0.0390468444426319,-0.0316297947286195,0.0346506659461115,-0.0279059148411494,-0.2301707601901836,0.5239217916424166,9.812573229494737,-0.0138284768539349,-0.0154772478426959,0.1219199205509071
298,2980,0.0307582863881331,-0.0246064074703525,0.0204747076817908,-0.0248831624377568,-0.0798308675790554,0.4843331170596023,9.457156743113927,-0.0497017729446284,-0.0265162141477482,0.1099210599703699
299,2990,0.0359688208906622,-0.0280536628074841,0.0251088970859153,-0.0191333623851852,-0.07431195210941,0.2757604138386575,9.407579256248017,-0.0559382004128725,-0.0352296285948741,0.1591680220143873
300,3000,0.0268846322153815,-0.0325704597335509,0.0140268743834051,-0.0312461840437782,-0.0723411771029405,0.7055547991349046,9.40666462347648,-0.0108722540597462,-0.0153861571798704,0.1408846473704926
301,3010,0.0150036117382301,-0.043986099064961,0.0150980318318182,-0.0232603625182991,-0.0768551524267696,0.4568128177887325,9.378240042824604,-0.0654892418333976,-0.0098336431206485,0.1788223738066761
302,3020,0.0247261517910995,-0.0282012517538491,0.0104369253533886,-0.011150169699675,-0.1880780751112019,0.6753675118837603,9.487529007625138,-0.0120983842999185,-0.0081261972994362,0.1318359063835349
303,3030,0.0260314813179512,-0.0507319388330358,0.0277858051094554,-0.0236075182582702,-0.1072087813143579,0.5249484222251656,9.42244839796383,-0.0710136503232203,-0.0218532124427704,0.1755885311443105
304,3040,0.0294839351848297,-0.0308867944840794,0.0260315777787687,-0.0266048537057253,-0.1920009825735747,0.3384650961553197,9.814884921381244,-0.0289636013697938,-0.0376773025132815,0.1405359310257061
305,3050,0.0173856650986836,-0.0466775286214949,0.01816093112651,-0.0217991318794156,-0.1529932112648986,0.3984861838973963,9.554376064972184,-0.0533407827965845,-0.0160659496707204,0.1583767403406453
306,3060,0.0237597121238632,-0.0285755892183049,0.0268026147108189,-0.0253558163815088,-0.1318902709549562,0.7038070384237818,9.37424245452939,-0.0607804750190066,-0.0190111957023099,0.1979445732158241
307,3070,0.0201142115672204,-0.0256629610372007,0.0229992900403337,-0.0161769860233266,-0.1043733069552538,0.3840519586766234,9.415731249803056,-0.0392913890787923,-0.0026813700249937,0.1111824169316923
308,3080,0.0382348719121908,-0.0139435790389672,0.0341046655899556,-0.0076486010420895,-0.0484751716392308,0.5534785483609314,9.750030312028816,-0.0560598691257083,-0.0330700901915434,0.2048161199374964
309,3090,0.0284613992618974,-0.0219133739240081,0.0058788541213681,-0.0040413959326417,-0.2410978243894815,0.3279893016438183,9.957771937275698,-0.0567072252443991,-0.0174014150412579,0.1349225038830386
310,3100,0.04387404794864,-0.024165982465822,0.0200276366705592,-0.0091953739097482,-0.1290665391137532,0.5975536559540909,9.491268693155844,-0.0523485713601243,-0.0322461247799404,0.1735299964196595
311,3110,0.0032698480777934,-0.0264470128923398,0.0008027623802881,-0.0193754310850156,-0.2365142766622325,0.4270109540645627,10.006135204540016,-0.0647380370373684,-0.0050754718398742,0.1722379270545979
312,3120,0.0300587622237963,-0.0230885814994666,0.0047740158745267,-0.0147628484927819,0.0035487036335399,0.6591816296401023,9.189506120075029,-0.0459688498378416,-0.0328381017106247,0.1166761431033479
313,3130,0.0224936853362686,-0.0325354186615133,0.0290170034568018,-0.0094805620190102,-0.1671960824675412,0.6333179649359151,10.02110625052978,-0.0703846417103466,-0.0061311150267021,0.2198164479113898
314,3140,0.0276648297607232,-0.0417379846643282,0.0033934350213462,-0.0218318911366421,-0.1431289188415812,0.3977861006506513,9.246971206331786,-0.0472594899217063,-0.0032072964289996,0.1584626167290989
315,3150,0.0303892563110106,-0.0301813438702291,-0.0001321947940323,-0.0503939314568955,-0.2471591260822715,0.5789160721781055,9.695896029184,-0.0429779653926187,-0.0102764399360917,0.1397268442194804
316,3160,0.0445863919551223,-0.0266822790391419,0.0372255570752319,-0.0176044110407275,-0.1184322267165788,0.4392476806464954,9.665447095553723,-0.103537573491182,-0.0226013025966626,0.1610067642685654
317,3170,0.0146047871295173,-0.021243407618868,0.0177566646803643,-0.0296040839279026,0.0288778884455964,0.616396683118199,9.084381365688156,-0.0155703433436908,-0.0141926480779583,0.1517064667661508
318,3180,0.0558712484861365,-0.0176909885790916,0.0189482289126546,-0.0184833921329408,0.0156520631182948,0.6374794036595781,9.402811593042752,-0.0345773575265009,-0.0062858542813169,0.1312810502898148
319,3190,0.0316983899965387,-0.0276603501706226,0.0445248517089359,-0.0257805480267633,-0.1629542039395921,0.506925939341275,9.329058310969652,-0.0926615848088135,-0.0211670724723917,0.1459952678416091
320,3200,0.0349538809771792,-0.010793997761904,0.0420526565900982,-0.0067462799444007,-0.1396138700784153,0.3245010027285316,9.422080349179405,-0.0556587742630668,-0.0062344764075098,0.1176252771596722
321,3210,0.0349538809771792,-0.010793997761904,0.0420526565900982,-0.0067462799444007,-0.1396138700784153,0.3245010027285316,9.422080349179405,-0.0556587742630668,-0.0062344764075098,0.1176252771596722
322,3220,0.03182313387571125,-0.010504563639044062,0.03733166360200167,-0.0077869196770843415,-0.11912268945865148,0.29523288903227657,9.431998138125426,-0.05683846665060477,-0.004884369992407921,0.10729955098412859
323,3230,0.028692386774243305,-0.010215129516184127,0.03261067061390515,-0.008827559409767984,-0.09863150883888766,0.2659647753360216,9.441915927071445,-0.05801815903814274,-0.0035342635773060425,0.09697382480858496
324,3240,0.025561639672775357,-0.00992569539332419,0.027889677625808622,-0.009868199142451626,-0.07814032821912383,0.23669666163976655,9.451833716017466,-0.0591978514256807,-0.0021841571622041632,0.08664809863304135
325,3250,0.022430892571307412,-0.009636261270464252,0.023168684637712097,-0.010908838875135267,-0.057649147599360004,0.2074285479435115,9.461751504963487,-0.06037754381321867,-0.0008340507471022848,0.07632237245749773
326,3260,0.019300145469839464,-0.009346827147604316,0.018447691649615572,-0.01194947860781891,-0.03715796697959618,0.1781604342472565,9.471669293909507,-0.06155723620075664,0.0005160556679995936,0.0659966462819541
327,3270,0.016169398368371515,-0.009057393024744379,0.013726698661519043,-0.012990118340502552,-0.016666786359832347,0.1488923205510015,9.481587082855528,-0.0627369285882946,0.0018661620831014738,0.05567092010641049
328,3280,0.01303865126690357,-0.008767958901884441,0.009005705673422522,-0.014030758073186194,0.003824394259931474,0.11962420685474645,9.49150487180155,-0.06391662097583257,0.0032162684982033523,0.04534519393086686
329,3290,0.009907904165435622,-0.008478524779024506,0.004284712685325993,-0.015071397805869836,0.024315574879695295,0.09035609315849144,9.501422660747568,-0.06509631336337054,0.004566374913305231,0.03501946775532325
330,3300,0.006777157063967674,-0.008189090656164568,-0.00043628030277053503,-0.01611203753855348,0.04480675549945912,0.06108797946223643,9.51134044969359,-0.06627600575090851,0.005916481328407109,0.024693741579779632
331,3310,0.003646409962499729,-0.007899656533304631,-0.0051572732908670565,-0.01715267727123712,0.06529793611922294,0.03181986576598139,9.52125823863961,-0.06745569813844648,0.007266587743508988,0.014368015404236004
332,3320,0.0005156628610317807,-0.0076102224104446945,-0.009878266278963585,-0.01819331700392076,0.08578911673898676,0.002551752069726354,9.531176027585632,-0.06863539052598445,0.008616694158610869,0.004042289228692389
333,3330,-0.0026150842404361677,-0.007320788287584758,-0.014599259267060113,-0.019233956736604402,0.10628029735875061,-0.02671636162652863,9.541093816531651,-0.06981508291352242,0.009966800573712749,-0.006283436946851226
334,3340,-0.005745831341904116,-0.007031354164724821,-0.019320252255156635,-0.020274596469288045,0.1267714779785144,-0.05598447532278367,9.551011605477672,-0.0709947753010604,0.011316906988814626,-0.01660916312239484
335,3350,-0.008876578443372057,-0.006741920041864884,-0.024041245243253156,-0.021315236201971687,0.14726265859827825,-0.0852525890190387,9.560929394423693,-0.07217446768859836,0.012667013403916506,-0.026934889297938483
336,3360,-0.012007325544840006,-0.006452485919004947,-0.028762238231349685,-0.02235587593465533,0.16775383921804204,-0.11452070271529369,9.570847183369713,-0.07335416007613632,0.014017119819018382,-0.0372606154734821
337,3370,-0.015138072646307954,-0.00616305179614501,-0.03348323121944621,-0.023396515667338972,0.1882450198378059,-0.14378881641154873,9.580764972315734,-0.07453385246367429,0.015367226234120263,-0.04758634164902571
338,3380,-0.018268819747775902,-0.005873617673285074,-0.03820422420754274,-0.024437155400022614,0.20873620045756974,-0.17305693010780376,9.590682761261755,-0.07571354485121226,0.016717332649222143,-0.05791206782456933
339,3390,-0.02139956684924385,-0.005584183550425136,-0.04292521719563927,-0.025477795132706257,0.22922738107733354,-0.20232504380405875,9.600600550207774,-0.07689323723875023,0.01806743906432402,-0.06823779400011294
340,3400,-0.0245303139507118,-0.0052947494275652,-0.0476462101837358,-0.0265184348653899,0.2497185616970974,-0.2315931575003138,9.610518339153796,-0.0780729296262882,0.0194175454794259,-0.0785635201756566
341,3410,-0.0245303139507118,-0.0052947494275652,-0.0476462101837358,-0.0265184348653899,0.2497185616970974,-0.2315931575003138,9.610518339153796,-0.0780729296262882,0.0194175454794259,-0.0785635201756566
342,3420,-0.0410375230677987,-0.0237184632560884,-0.0504354192741346,-0.0136078236785653,-0.0182512683282801,-0.1128038695093869,9.47194679017377,-0.0614947724075068,0.0348769498988891,-0.0872804521650428
343,3430,-0.0288750276606561,-0.013918723096452,-0.0432439127736779,-0.017961743835889,0.2654635741489524,-0.2015105329212505,9.815976755793022,-0.0550153890914464,0.0223031720909494,-0.0533177938126311
344,3440,-0.0325084112207534,-0.0004898807579485,-0.0377498828555992,-0.0007364656119962,0.0321023476480088,-0.2449456480609492,9.613275966282345,-0.0438064427885071,0.0202265342070623,-0.0964178206347465
345,3450,-0.0236526233383917,-0.0171249489517433,-0.0369618059097396,-0.0048660440810642,0.1007830079539624,-0.1498035745058556,9.631907588814098,-0.0216412238540323,0.0155754898266913,-0.0139192341223066
346,3460,-0.0147751969053816,-0.0140155453152322,-0.0219218448779332,-0.0055319994878881,-0.0110694613678999,-0.2433601334743728,9.675412590145338,-0.0739534468171197,0.0242020943357792,-0.0914620668628105
347,3470,-0.0313278186629053,-0.0251191913267088,-0.0322016079372472,-0.0179328635978849,0.1375225280005651,-0.1037597110307796,9.604138472012584,-0.0625956264990672,0.0362449529347382,-0.0486217706070325
348,3480,-0.008082402901983,-0.0056275847326559,-0.040921591553849,-0.0162058357091374,0.2355977727358518,-0.3707259333373537,9.009881906084486,-0.0518339469397833,0.0207962992977035,-0.0861856073428654
349,3490,-0.0284711254296974,-0.0052995267153803,-0.0371927261089381,-0.01337700274222,0.3325313386400941,-0.2996295784189904,9.741429055572535,-0.0780591280050144,0.0103014390545867,-0.0489975962138312
350,3500,-0.0211921845498604,-0.0191932968516946,-0.0402550230807827,0.0091274912621841,0.0889907394183184,0.0213219137838109,9.336155794637818,-0.0796015299108434,0.0336520024895491,-0.1028060044428748
351,3510,-0.0041931852944618,0.0035969475321196,-0.0044769411124151,-0.0165944388219019,0.1300430231598237,-0.4105485518576757,9.41218002427604,-0.0884619648646259,0.027863720058696,0.0019486034158559
352,3520,-0.0169439757097021,0.0055792241948874,-0.0016781679492921,-0.0001613721179096,0.1421732560929757,-0.2068199745222282,9.729549285527693,-0.044588111625775,0.048240101895129,0.0121754346946214
353,3530,-0.0200488147839049,-0.0057467857847596,-0.0239603438594829,-0.0128138829607561,0.424747014861693,-0.3606092543058466,9.24088979885944,-0.0444616767191541,0.0116405787475667,-0.0312291299611155
354,3540,-0.0182532409041328,-0.002298775425543,-0.0138007748157478,0.0170314161724263,0.1141214960763222,-0.2958172932605639,9.373874742053571,-0.0255526059881224,0.0171228304365133,-0.0550332770220324
355,3550,-0.0127947431744773,0.004516682638879,-0.0349693298780856,0.0228032899767821,0.3167482962745074,-0.2561143814774271,9.81329162258273,-0.069113100354122,0.0330882055624343,-0.0369022020792245
356,3560,-0.0272539062267147,-0.0314651971381689,-0.0233842564375275,-0.0154712987263658,0.0868645281711842,-0.3552199225631551,9.586444514763304,-0.0736621248085012,0.0189242292611045,-0.0622511274238544
357,3570,-0.0132308662093008,0.0040715350027027,-0.0335397979828178,0.0100967554438827,0.0558031382478615,0.0849863312259273,9.47404408542888,-0.0773451281074445,0.0202090433735518,-0.0048806817444366
358,3580,-0.0068881629485122,-0.0107973693332211,-0.0132112084066006,0.0137875067433254,0.1527316863676753,-0.2055800535326428,9.474015707239166,-0.0130092435472168,0.0111121654450965,-0.0565673721477978
359,3590,-0.0177020897081255,0.0062319068119104,-0.0116030813205026,0.0118775578633168,0.1250745008093554,-0.0628528667657374,9.365672652259075,-0.0044721972048054,0.0336777700135689,-0.0731617108908641
360,3600,-0.0069410028431522,-0.0019617569606635,-0.0166420377918276,0.0067850086593103,0.0432998122722773,-0.2443605219557734,9.709524158344312,-0.0307140520505886,0.0140294126444478,-0.0379097142520893
361,3610,-0.0263234917982883,-0.0033881900671695,-0.0106240215840957,0.0102833995649924,0.1838192355233852,-0.1131713941936879,9.503961360784391,-0.0321424745697569,0.0087037076302775,-0.0860217560928009
362,3620,-0.0253691594310634,0.010131351413867,-0.003782322134197,0.0001513926730802,0.0508880946686969,-0.101087568473132,9.855310529940692,-0.0440345297595148,0.0273053926545182,-0.0365420444412149
363,3630,-0.0060691209742909,-0.008763402621105,-0.0333480798022904,0.0204124025614826,0.0125903432087663,-0.0286711876642466,9.793395280773474,-0.0277206133248997,0.0312216971440282,-0.0674298967167433
364,3640,-0.0217585971717415,-0.0062530736603992,-0.0109981414546184,0.0030802275567123,0.1238404354675643,-0.187873709125085,9.226045815375835,-0.0573395999906826,0.0200646380668621,-0.0955824946477698
365,3650,-0.024017933753151,-0.0067265143385709,-0.0395377307657075,0.0133544150379761,-0.0114465683459027,-0.1176837291121973,9.670979982361429,-0.0362890532567596,-0.0045121107006594,-0.0360453499316144
366,3660,-0.0184414255327053,-0.0145491630573838,-0.0189142439843807,0.0024733707651537,0.1679204259456254,-0.1753138623676589,9.90701404261154,-0.0556399238885377,0.0213884790250516,-0.0122501533044866
367,3670,-0.015857520961974,0.0241816300026666,-0.0168264347840337,0.0363472806358135,0.2058122306308633,-0.2459597342653428,9.872673632784,-0.0357127974293387,0.032176722739802,-0.0582002874660203
368,3680,-0.0393085147567047,0.0098127205431486,-0.0195259389952709,-0.0241148748222324,0.0496919623014036,-0.0708378449219491,9.84174870084218,-0.0520111217463255,0.0164248505770988,-0.0804286029402998
369,3690,-0.0126437410522896,0.0002094687633561,-0.0299709567276757,0.0011038339016546,0.0878155791172514,-0.0688706793218208,9.744752849706416,-0.0132584133965526,0.0022968962969189,-0.0438428459423081
370,3700,-0.0350502712647261,-0.0048942349030376,-0.0242573301443386,-0.0083281284243132,0.225485964182842,-0.2860278520983965,10.035134846246466,-0.0196220584031021,0.0039431460504337,-0.0580476665005619
371,3710,-0.0245655352740284,-0.0200932727468589,-0.0234088415598311,0.0045726081635559,0.2213651134032807,-0.2198535930609638,9.364836012476523,-0.033522509511336,0.0260883551111041,0.0023147766712592
372,3720,-0.032430641501255,-0.0098239119756857,-0.0023281943812002,-0.0123085802221758,-0.0203684765415851,0.0961687872995306,9.78644064724606,-0.0174917192313106,0.0231339386169284,-0.0431454718576054
373,3730,0.0013181346202354,0.014687613572541,-0.011408381884319,0.0063829977986626,0.0766516650890977,-0.0550939387727831,9.743725945701348,-0.033714747136354,0.0090492808913318,-0.0023893573357708
374,3740,-0.0184508713292622,-0.02957178810319,-0.0198943055700941,-0.0108879955613035,-0.0375789040367644,-0.0531397787692904,9.83047099721793,-0.0289252453043985,0.007113611508296,-0.0101437196100599
375,3750,-0.0262492707203437,-0.0198233775911225,-0.012797702259835,0.0054839682699372,0.0204305014335807,-0.2237328360290071,9.7155189863885,0.0022201671758186,0.0251027484756298,0.0731122078349072
376,3760,-0.0270194084316841,4.304936347213247e-05,-0.0173548433857814,-0.0161931572671415,0.1494865916752311,-0.0629419404386351,9.582529023258337,-0.0338748651510022,0.0118531431711211,0.0269975946204238
377,3770,-0.0179433130028001,-0.0228023125015737,-0.0116232438498279,0.0090286311882567,0.0807287653652742,0.1256176207258683,9.53230479244322,-0.0120739354202368,-0.0094929440029125,0.0222910682729433
378,3780,-0.0303177104536643,-0.0184343040957529,-0.0358729979417715,-0.0270881129723642,0.1974875213702275,-0.2005756371655367,9.62138467338536,-0.0319951037932617,0.0062041644985722,-0.0118107673843952
379,3790,-0.039247274571144,-0.0357280639799022,-0.0355292383891808,-0.0220517951305943,-0.102192201360629,0.0278742290983366,9.8158628385726,-0.043614988033181,-0.007417260356476,-0.1101836902354725
380,3800,-0.0371537760015592,-0.0190097368400454,-0.0447699863467038,-0.0359728549759947,-0.0283070834208338,0.0286278655752727,9.683724846554547,-0.0047150046524682,0.0014063795870826,-0.0194894400010808
381,3810,-0.003719611924047,-0.0191509588312395,-0.0280745538402391,-7.470350911054297e-05,0.0096311168399992,0.1676462141753152,9.412090006001163,-0.0127666399204792,0.0229787715250179,-0.0811439287718067
382,3820,-0.0226337502501477,-0.0203751693738931,-0.0344109525036441,-0.009743764874448,-0.059461519966715,-0.0336774416643458,9.826958831335778,-0.0122821365612822,0.0069425241794975,-0.0107199498708543
383,3830,-0.0580576287683121,-0.0438449104285471,-0.0337848369254307,-0.0106080494396847,0.0501382700581671,-0.0275459955879571,9.838470067867306,-0.047999586297182,0.0070378953312615,-0.0024681366977305
384,3840,-0.0211818924461057,-0.0143759657212378,-0.0270141552197367,-0.0205692461532316,0.0817892145803634,-0.0968111942897574,9.811185199918354,-0.0098143049128118,0.0166714377578785,0.0503141477584403
385,3850,-0.0318523090450277,-0.0174858249716959,-0.03705679292694,-0.0178560100088848,0.0773410410537989,-0.0039593305684758,9.991681446228547,0.0004909867604667,0.005708850114961,0.0127836931222407
386,3860,-0.0289611711595762,-0.0216811702624642,-0.0159898485405637,-0.0063832360372514,0.0948039407192701,-0.0199655728996026,9.692176194008953,-0.0027414970670074,0.0100460235495635,0.0026869424610013
387,3870,-0.0130103489229192,0.0062242528974926,-0.0171353257124665,-0.0221770362357969,0.0115877750894493,-0.2952145574951256,9.687759485021688,0.0058110149121526,0.002914961819416,-0.0394079751141788
388,3880,-0.0019379231132798,-0.0175317306374568,-0.0167492676161675,0.0026440022607069,-0.0101501494418499,0.1367728234484865,9.744010614946111,0.0006890776360094,0.0037835890271429,0.0096199378238812
389,3890,-0.0004498355836003,-0.0233785954702227,-0.0009240012216602,-0.0119129069968068,0.0711046041303677,-0.1600846162740871,10.20890268130506,0.0021275684734565,0.0131171595340133,0.025419704806161
390,3900,-0.0168031082459511,-0.009830008329233,-0.0137959195601472,-0.019472583020597,-0.1656662516836317,0.0091334615087249,10.037565721078757,-0.010064716133433,0.0182400446708601,0.0149331665597815
391,3910,-0.014343311250887,-0.0288686822802242,-0.0218138192285863,-0.0082749177607474,0.1240948551952104,-0.0030174374719428,9.714466233820922,-0.0215999043915391,0.0142930016524648,0.0147000202313443
392,3920,-0.0054620111461365,0.002719090127984,-0.0135591512639268,0.0021257729664357,0.198777669799596,-0.0321631002522178,9.89310890512112,-0.0428435773736148,-0.0057256112136317,0.0200085172363772
393,3930,-0.0016015978644639,-0.0230905542122928,-0.020716348914468,-0.0148639056503858,0.0134095385501864,0.0392701316998015,9.770597330043026,0.0096154408738021,-0.0069869690515314,0.0243646394228847
394,3940,-0.0022411911591606,0.0141196285048481,-0.0068398254232635,-0.002502975422117,0.040609144740257,-0.1063015893170984,9.73372908475807,-0.0160240996692054,-0.0178732903247373,0.0530681366979157
395,3950,0.0048135211689962,0.0073090839799947,-0.0014112401043951,0.0098722911176669,0.0167535769874772,-0.0727070614413592,10.170046367339284,-0.045120352741112,0.0077711563832554,0.029069284175741
396,3960,-0.009586636131034,-0.01181030730446,-0.0043794491607775,-0.0116693148042291,0.0927311738407798,-0.0604761287419089,9.410113802252535,-0.0013829432000078,0.004698905411328,-0.0092632320983524
397,3970,-0.0050313204254539,-0.0102817796721922,-0.0107994348197268,-0.001834204046121,0.0503301260900324,0.0834744486746354,9.827771736945047,0.0084057233288309,-0.0118739139178495,-0.0244391044135918
398,3980,0.0020693283132005,-0.0043898114279412,0.0013045059348673,-0.0256311317412273,-0.0094792358886493,-0.0350856808630766,10.036734792409822,0.0084022816964065,0.005955091058189,0.0687173757858914
399,3990,-0.0091560696347738,0.0038026661615578,-0.0070953915387329,-0.005633908740192,-0.0591050669626469,0.0295753618250481,9.800041799729934,-0.0055607259437227,-0.0017858730539226,0.0509286235611605
400,4000,-0.0029203116729528,0.0044265100780136,-0.0047042954775872,0.000926832710402,0.0431478276398095,-0.0251904437282853,9.840144531862885,0.014066632656171,0.0006647426047031,-0.0432486292214291
401,4010,0.0133257729459338,0.0143650623286181,0.0107603949655356,0.0236726517915367,-0.1321502756824046,-0.1083567826816638,9.782719544407458,0.0042919107693765,0.0090055811028334,0.0183874951519624
402,4020,0.0108484061432027,-0.0015967609349106,0.0026572191082666,0.0045188495388973,-0.05601856361797,0.2203781279473685,9.665540005542558,0.0185832870901196,0.0132324991342118,0.0787489737787693
403,4030,0.0205542619211935,0.0060180419167895,0.0175761739573361,0.0078416912985899,0.0509918748682646,0.251245273261299,9.651310069825223,0.0202535787709998,0.0078970596306764,0.0241858491178852
404,4040,0.0222797931378799,0.0204625380845977,0.0126676474290005,0.0098745332805813,-0.0934015442756331,0.2255785999238939,9.688252278152934,-0.0100184884762227,-0.0013502687246341,0.0876621012565254
405,4050,0.0273568261010871,0.0171987905566449,-0.0013553587444146,0.0273682803697639,0.0085328198809859,0.2353991367259435,9.907026646973248,0.0051781919471518,0.0032053675017188,-0.0103371132207594
406,4060,0.0356671664090429,0.002167919913209,0.0133406603154567,0.0337300494255966,0.1884550604347578,0.1778632720658793,9.973139323842654,-0.0224502006363433,-0.0001041022169648,-0.0044992699303241
407,4070,0.0135428785553569,-0.0132527885527748,0.0019338756158108,0.0331228168988661,-0.0239694371596875,-0.0347161070478695,9.580493542861152,0.0276362326037243,0.000153974449655,0.0175844178279929
408,4080,0.0229000255940618,0.0034055194216279,0.0150833478881489,-0.0065411132947429,-0.0508428667965389,0.2170657853647367,9.930364834799416,-0.0173984266093577,-0.005074854528915,-0.0215773108728936
409,4090,0.0008388300476781,0.0149410961364328,0.0227643506211957,0.0066570151322888,-0.066501121724743,0.0215635996753384,9.754793469168195,0.0247749542750322,0.0074737564855902,0.0094397894737459
410,4100,0.0350041854144064,0.0078761648040052,0.0129097237462772,0.0090150271685464,-0.1564606946792084,0.1477916053285672,10.276049050446748,0.0303687582559015,-0.0201877317288693,0.0305807967381236
411,4110,0.0165068169795214,-0.0027290789486591,0.0195653769785356,0.0053442190939001,-0.0157487832361053,0.0591332041080104,10.200014663134708,-2.5505813659426613e-05,-0.0053412688443127,-0.0503499281353225
412,4120,0.0238180976702439,0.0192735603465155,0.043070516255827,0.0191954941689161,0.0321107274221336,0.0286733810164201,9.7492690176644,-0.0074897451122919,-0.0098173698088685,0.0250907028248878
413,4130,0.0190191403129225,0.0177132928333723,0.0399320597992727,0.036252886176962,-0.1595798534770265,0.0506870940958472,10.002444245572852,-0.0018950218244609,0.0060394489351745,-0.0091499709017251
414,4140,0.0284359181281078,-0.0024085331450443,0.0202947211101526,0.0078004299822524,0.200981657065926,0.1543313296319274,10.169476591978167,0.0302460232282574,-0.0153174010233028,0.0935359895333085
415,4150,0.0295363944733172,0.0123780074389685,0.0269588414520579,0.0026874995527641,-0.0017631552002935,0.1296826176077262,9.74205385027538,0.0388293975519774,-0.0079153027359175,-0.0189320437660363
416,4160,0.005381405315192,0.006855963002482,0.0137801581241703,0.0012383401724672,-0.0628459903462786,0.1565238231039268,10.009211515846188,9.00086266721091e-05,-0.0298590384773509,-0.0601967594531177
417,4170,0.0417729665215093,0.0153231068953125,0.0188576414962884,0.0220756879596038,0.0271382040318013,0.1738079938335635,10.013850818063666,0.0628261584905785,-0.0046897178669543,-0.0133992604680358
418,4180,0.0242874005947879,0.0230510809441121,0.0239959506459397,0.0141127563071276,-0.202828684381357,0.3168424930489441,9.934991488289665,0.0183751887915552,-0.0085070805865702,0.0334208496151116
419,4190,0.0140322323117723,-0.0042951626171864,0.027606097828194,0.0133470081205779,-0.1073713160347634,0.0303931521734279,9.902304567834031,0.0224564510868396,-0.015062046634543,0.0350891084357951
420,4200,0.0006332156120555,0.014269871766796,0.0307826524154879,-0.0106015840308473,0.1235053624636104,0.059566836947695,9.91628326772886,0.0310196943653944,-0.0005103522085821,-0.0077103780608698
421,4210,0.0330029257901796,0.0198982238314521,0.0130325748823219,-0.0108185446680733,-0.1010532156593949,0.0520331556274845,10.033728433352444,0.0338616424035086,-0.0189381729611465,-0.0176890334866226
422,4220,0.0102407009844363,0.0212766092897578,0.0289813123533937,-0.0033298574919768,-0.0117297289066554,0.0020166763513904,9.86420404083439,0.045396694504188,-0.0240952597202986,-0.0373069777947422
423,4230,0.0211045327000249,0.0025172748652956,0.0064655513395598,0.0302517319632985,-0.1840915991541405,0.0460843656512832,10.03557370531582,-0.0025448434160586,-0.00380089036171,-0.0098860062213705
424,4240,0.0296274258152674,0.0322372555093231,0.0124942728044343,0.0238048461665998,-0.1800931320614177,0.1228578603479876,10.014901500919397,0.0497048271866057,-0.0087093032393643,0.0361576993778945
425,4250,0.0247122711563979,0.0043770841383347,0.0333962338531286,-0.0133748744077381,-0.0619239668510322,-0.0199122612049301,9.83390251776483,0.0446001155353086,-0.0151195701196153,-0.0046754726126522
426,4260,0.0179813161246391,-0.0006665691342863,0.0186783418736688,-0.0029677109879302,-0.136365419271967,-0.1857323166893931,9.974449047248063,0.0343272549861014,-0.0305545175310178,-0.0193594165544988
427,4270,0.0141075445352115,0.0220672538300972,0.0090559383031938,0.011027846361511,-0.1347868818287559,0.2462439275952831,10.071201841270495,0.0588915518471151,-0.012991171769818,0.001227301305816
428,4280,0.019966626037351,2.7367612435418714e-06,0.0298956180627954,0.0173448965984604,-0.0255865481126221,-0.0532145050619498,10.112847587677477,0.0222550956858076,-0.0053080290240113,0.0926994704813492
429,4290,0.0132841360947602,-0.0021824699267752,0.0032170210878626,0.0147586386756585,-0.0726373028275145,0.0142398739537218,9.538775044347656,0.0432075264480157,-0.0123688636539629,0.0868961327617225
430,4300,0.0245254325590616,0.0045639061183849,0.0200750409263981,-0.0024393792505223,-0.1562109193377355,0.260260989574504,10.295879432925377,0.0553058609512115,-0.0302878681669047,0.0337479979579578
431,4310,0.0102587912967547,-0.0183277519357694,0.007146648325318,-0.0111414916461895,0.0801827982742355,0.1739632393510926,10.131829085260096,0.0267838337154447,-0.0029549052710491,0.0198377356970324
432,4320,0.0183978809957819,-0.0070710972505531,0.0286008390880536,-0.0173378102564577,-0.1165574485180879,0.2921716242806926,10.550799313416269,0.0377556340055702,-0.011355538795421,0.0131805883584531
433,4330,0.00880650838155,-0.0060453207835269,0.0184942046546891,-0.0019463995015448,-0.1197119760100023,0.1893632342365427,10.511891166909985,0.0420038528317763,-0.0194336634664563,0.0919081076902332
434,4340,0.0275691061459111,0.0168957198847063,0.0282850902999511,0.0087174620647125,-0.1102661664473295,0.113407478523187,9.871784912667888,0.0496728108007652,-0.0282266203148733,0.0084831236953564
435,4350,0.0002273636246182,-0.0114656177057994,0.0134291217759088,0.0006649265868217,-0.0865371305374733,0.085839399873893,9.831462796335748,0.0520362049059852,-0.0174985440285046,0.0363662065449516
436,4360,0.044578002032321,0.0160782686688419,0.0157315431033242,0.0095660961066056,-0.2169724584511511,0.2597211946584094,10.110134778739626,0.0358522127382207,-0.0136567057667173,0.0568679778716587
437,4370,0.0169573981260818,-0.0095311892909967,0.0109628557751085,-0.001301038442609,0.0627727979247749,0.1923829650261844,10.136594834855888,0.0347746760940435,-0.0318731494036785,0.0681407065244866
438,4380,0.0098666339645186,-0.0040913294852054,0.0429064058396227,0.0056291769023729,-0.0496945691814579,0.050945252165347,9.773885604558226,0.0346877569764193,-0.0099296626064699,0.0360500733854286
439,4390,0.0352129310199941,-0.0177836866806458,0.0218182316904485,-0.0068647069765863,-0.0440484210912234,0.5030041223017679,10.274520677699064,0.0631376512638513,-0.0136959504523289,0.1283921924726824
440,4400,0.0003102050231358,0.0102220273389614,0.0254914557694349,0.0016706090725072,-0.0599661224358563,0.5203667452080435,9.930112368344629,0.0420371442668284,-0.0090975300892788,0.0399518832396857
441,4410,0.0357365967676512,0.0051089259029638,0.0332977000199767,0.0082675698723538,-0.1409450462561088,0.1368142268301292,10.014223644186211,0.0532457872777815,-0.0137582670160761,0.0471525288745953
442,4420,0.0304672457690983,0.0134157913808939,0.0188061521127425,-0.0075380049304472,-0.1401725595095129,0.3725082017618536,10.399704251181047,0.0619538780022483,-0.0287571481211599,0.0750839389959639
443,4430,0.0152874834393518,0.0032676052665672,0.0208804300144193,-0.0033962999014769,-0.1877214096275707,0.0944649078877537,9.794246479826263,0.0455339347533157,-0.029054184193165,0.041819049787923
444,4440,0.0328689814398582,0.0121579591554553,0.0187799574053868,0.0087235016143424,-0.1870756064337554,0.327935854255393,10.072014644657314,0.0851535042590618,-0.0161642729524613,0.0638978258984954
445,4450,0.0326661444608393,-0.0007154095626771,0.0086163933961548,-0.0056172540512411,-0.1752995477765004,0.1908104043167098,9.718501585891298,0.0446934232560696,-0.0194210710128499,0.0756355572019657
446,4460,0.0075679446530654,0.0019614253065808,0.0381230882422999,-0.0098408092484528,-0.115240890218481,0.3662417860556563,9.936972776133045,0.0385473769540162,0.0034210513758412,0.0574031538287889
447,4470,0.0170089663471653,0.016609622746717,0.0329234496488243,0.0089989021478439,-0.1488474649401946,0.3562918429919505,10.353123453812907,0.032263982716874,-0.0129953237348052,0.1114884160373937
448,4480,0.048802983698375,-0.0071311370898695,0.0327677841934389,0.0104376973550346,-0.112189706817316,0.239032299140361,9.990151944835658,0.0685866264568474,-0.0267398154357628,0.1143303945529652
449,4490,0.0374595885592424,0.0112506314214194,0.0405790994912229,0.0169684811345058,-0.1806107375317248,-0.0697178609813254,9.959261815782671,0.0768906392480529,-0.0232269149054912,0.067045801778397
450,4500,0.0285557307554766,0.0068726357707413,0.0513035077418663,-0.0012307685660763,-0.0317977399850798,0.1717360158866059,10.199664574184476,0.1075488785634983,-0.011959525981665,0.0842785871453739
451,4510,0.0243366890842457,0.0057601397652901,0.0315189882615355,-0.0016231667841085,0.0138056711643124,0.2500030579206143,9.853142443642568,0.0802951998368108,-0.0226826397616719,0.0255713064838261
452,4520,0.0289013906372855,0.0048635654366168,0.0476801703646847,0.0237187295840414,-0.2586724269392119,0.0535207951049203,10.238719411145674,0.0603125849573544,-0.0411494737677975,0.0511078680827724
453,4530,0.0374061953252367,0.0274528676814727,0.047046534895689,0.0099930002461376,-0.0873758178451267,0.102316631240839,10.027480007453024,0.0628534076354819,-0.0280385999153575,0.1067110223338365
454,4540,0.0599069133920684,0.0159812927055371,0.0562535681463827,0.02012291854032,-0.1112984960179627,0.2697123363040766,9.724945352195173,0.1084916416011361,-0.0291497175264915,0.0761074802553688
455,4550,0.048481243815557,0.0063343907338803,0.0370535249363236,0.0165062941059729,-0.0025386531216436,0.0892259262876169,9.92909051345393,0.0756643176512493,-0.0250740998669086,0.0500740339437107
456,4560,0.04750611322006,0.0151473258773952,0.0192469134884002,0.0108829137799985,-0.2036575853363707,0.255851848584011,9.787896967528663,0.0423153183578018,-0.0149498137908038,0.0613322718864923
457,4570,0.0284976311277267,0.0128843906743096,0.0191983346119264,0.0090557238216598,-0.2984522057316543,0.3086912363649879,10.027098749935998,0.1032461187647625,-0.0216474300717315,0.0920758332178556
458,4580,0.025005673672483,0.026361027417906,0.048990791590708,0.0341770711791087,-0.2692136285719426,0.2626906561903688,9.918955640690733,0.0508672488895195,-0.0160374539479338,0.0699056796868248
459,4590,0.0346545133283024,0.0160433765763256,0.0596125671102974,0.0066959923994761,-0.1575408388302389,0.3008347571284182,10.16707597896688,0.0669810604401165,-0.0329607748537222,0.0686808014628546
460,4600,0.0433377672755084,0.0160149817589107,0.0567283516821581,0.0061405659250866,-0.1815705331376341,0.1470892781258992,10.41890257872517,0.0760544072215648,-0.0141833716378696,0.0850105750462188
461,4610,0.0340063860202161,0.025010811758926,0.0410107271502127,0.0175502980500704,-0.1378831999264381,0.1546012428806255,10.529956411135796,0.091198892094806,-0.039804987828754,0.1173825857186105
462,4620,0.0312437050791815,0.0175292343265999,0.029551923515911,0.0257726205993997,-0.3001970052879465,0.257945205040989,9.903689024895405,0.064379052602551,-0.0341040007714403,0.0520464810395214
463,4630,0.0540185945475012,0.0302822863857389,0.0619885254117343,0.0217274798540093,-0.2200295889722842,0.2315715254507912,10.03205621139585,0.0774158489439459,-0.0252134073403854,0.0813909308757821
464,4640,0.0292687456629844,0.0141716006153281,0.0445334146546457,0.0165229998323921,-0.2744942593409225,0.0877597567621941,10.440475676618098,0.1036065893213449,-0.0124767519449342,0.0612422284861746
465,4650,0.0396308822321216,0.0102008755338128,0.0436356868400037,0.0166672811432955,-0.1015054474479083,0.1309999614821659,10.261969241428046,0.0826450756019678,-0.0251830407806097,0.0241394096703311
466,4660,0.0326712535556141,-0.0033466761624194,0.0175849035054209,-0.0109719427018466,-0.1436801290273204,0.3145151158883233,9.897032151078854,0.0880578111226455,-0.0044842063212367,0.1314990543744789
467,4670,0.0312733915605606,0.0090935543539275,0.0411251124230542,0.0033770954624317,-0.2776327620580794,0.141748447711895,10.345960594142127,0.0745169003622559,-0.0280986025291369,0.119781245096364
468,4680,0.0440048856874491,0.0127371361749293,0.0321784341610648,0.0005795533305959,-0.1764929802312746,0.3857640702302465,10.025797811231008,0.0631708618864501,-0.0358685034877218,0.0744184576578688
469,4690,0.0200066960718609,-0.0016748778817791,0.0086985873390923,0.0127998938042811,-0.0876358189746858,0.2954171200420974,10.51446688208036,0.0549271512089317,-0.0379233425790156,0.0486235210167745
470,4700,0.0163436378561422,0.0027293559400854,0.0188691640437457,0.0061753187517091,-0.2482658498836867,0.1931235327672599,10.424539500861584,0.1077967247553842,-0.0338594490986699,0.0739374579373243
471,4710,0.0212375167463536,0.002519887011027,0.0334503155996009,0.0115404553378045,-0.2566991798539546,0.1833995676391645,10.16953975708677,0.0915637996999506,-0.026900056946226,0.0487247292351556
472,4720,0.0286141619406562,-0.0042367366072859,0.0380019529638477,-0.0120333761690589,-0.1905296124084858,0.1487371272458206,10.557786896575092,0.0941150361949207,-0.0239182407524807,0.1597025318395347
473,4730,0.0203024083085931,-0.0045185419964518,0.0077010823980027,-0.0113162041656834,-0.4102556774738377,0.3213532083118813,10.46419495631494,0.0836534207457093,-0.0426660434033781,0.1157312444340889
474,4740,0.0183446394403699,-0.0143345823562178,0.0258092090629601,-0.0066573797576769,-0.2402372424727528,0.1811824151548536,10.381900582014458,0.0923029072495097,-0.0276949055725258,0.1134452208073545
475,4750,0.0105050466235039,0.0002757016537873,0.0163017790001339,0.0016408151284609,-0.3513156070791103,0.2361019828639027,10.179795543281235,0.0917288351996115,-0.0233439074828124,0.0154508123758915
476,4760,-0.0040426073144407,-0.0003095042122108,0.0069460321352082,-0.0258511538119799,-0.4226803077381711,0.2273204004532736,10.123063376063811,0.1171957217311368,-0.0416805909381047,0.1554766840961024
477,4770,0.0076079304475,-0.0182955303228624,0.0121519603953821,-0.0151960823147382,-0.391080482443008,0.2700278568637466,9.999786381897673,0.0733372370325521,-0.032359792561721,0.1580775803633018
478,4780,0.0321199143222097,-0.0092374308673413,0.0192716796115501,-0.011168693622244,-0.1964941562480741,0.3810868580294899,10.22121554514293,0.0766912052862146,-0.0303933971202585,0.1555150863639685
479,4790,0.0220880653379153,-0.0199970376256054,0.0556737833698128,-0.0042039123965869,-0.1951817355072142,0.2554538481226324,10.234784604900408,0.0888123732735101,-0.037890008294882,0.1284800087662616
480,4800,0.0189005273725256,-0.0123399561841323,-0.0015254820949912,-0.0039319058170148,-0.1940184796670526,0.4350985121442751,10.193859139353163,0.0489667370532614,-0.0263511746111765,0.0709342017976583
481,4810,0.0086594376287211,-0.0229665496619719,0.0331089883618857,-0.0227187089973463,-0.1390124578453037,0.3796435646325476,10.153712575001036,0.083668251472955,-0.0228487300586358,0.13430301222682
482,4820,0.019323973495927,-0.0020462509421594,0.0067328456126578,-0.005721359716219,-0.2276064974335805,0.2133422832553345,10.249322611173843,0.073439383736934,-0.0282617604256052,0.0591552815945102
483,4830,0.0093599824427703,-0.00408283729486,0.0321378777604142,-0.0258023871264608,-0.319649800291481,0.3268367274661021,10.350407335911216,0.1088468557247583,-0.0389946132236681,0.0303187329449854
484,4840,0.036538520047783,-0.007559539491785,0.041670919417794,-0.0232886774785179,-0.0367573087383951,0.1914359345607922,10.188076298488571,0.106732504241251,-0.0383565588621167,0.1029568251308378
485,4850,0.0179797221769075,-0.0001771919393886,0.0109846274791826,-0.0284134844841757,-0.2971473765952681,0.2206224340134543,10.074386219893244,0.0993373182070777,-0.0379694657092852,0.1397264554479586
486,4860,0.0153167511501868,-0.0096114505949964,0.0072324533498495,-0.0174953379193109,-0.1640882759313131,0.3345137499010893,9.982140666702865,0.095843748141792,-0.0254820109274143,0.0997312156956054
487,4870,0.009147986419494,-0.011964577808482,0.0106072698416533,-0.0315232669770105,-0.2883256207647175,0.2710968132306766,10.325466087138256,0.0715582291735044,-0.0321360452578388,0.1063409334261995
488,4880,0.0206374797156879,-0.0099603828748769,0.0070365941034238,-0.035625708443329,-0.2162197430542559,0.1592584328440758,9.991459073536076,0.1101443515418687,-0.0266166305360214,0.1492742235026833
489,4890,0.0209482474875331,-0.0150093226923902,0.007036381546627,-0.0165090772948371,-0.285991636969524,0.4371758245445179,10.225735050049432,0.1571610070339534,-0.0366602365337166,0.0773807684353278
490,4900,0.0162367047111027,-0.0300689003908656,-0.001986813970254,-0.0176302188425814,-0.1766492534614185,0.2523521653772979,10.089855745191985,0.0890547462840748,-0.0347691435229562,0.0784127508171349
491,4910,0.0161576402369528,-0.008147057511317,0.0200910040990734,-0.0205888717767003,-0.2574785626889684,0.2353456899490249,10.334004238270587,0.0932642490307198,-0.0310925885771296,0.1870078912355528
492,4920,0.0087145683082844,-0.0190179081142737,0.0082181385017048,-0.0290557375390605,-0.0768169888320864,0.5976956357200033,10.322048246063298,0.0964058351667364,-0.0597780409339051,-0.0237675557915666
493,4930,0.0019849611452204,-0.0192161818344389,0.0118062507136006,-0.0156023834135042,-0.3387121195773028,0.2806588651187041,10.386758965151287,0.067562242133307,-0.0311454045538891,0.1091414233964871
494,4940,0.0242676406594333,-0.0173123281559597,0.021389693762308,-0.0143365429545323,-0.2295478923387136,0.2737200589595312,10.333361404629212,0.108159340396289,-0.0330694732527493,0.0894907844930541
495,4950,0.0106407304579804,-0.0220159455688004,0.0163622982425634,-0.0227165716776278,-0.2856617307938218,0.5099785250561449,10.075893539172576,0.077282443126223,-0.012173234956539,0.0972013417206474
496,4960,0.0070920842296256,-0.0312041327684159,0.02937308667941,-0.0308013871996586,-0.2802883194012578,0.3578014629981874,10.520009059395312,0.1035785987917718,-0.0360750876044608,0.125858037334611
497,4970,0.005053967780176,-0.0148950925748969,0.0001037851435022,-0.0322259413568697,-0.1227361111656451,0.5145796637241489,10.13122640834824,0.1035815276918787,-0.0440493739567172,0.0800442216367286
498,4980,0.0181859977552095,-0.0137988359988843,0.0295413456715626,-0.0195921875699957,-0.4432180282236199,0.2517241306575047,10.636283475971194,0.1160864094212428,-0.0246911237409138,0.0908443154749387
499,4990,0.0226655535013754,-0.0262948966511057,0.0352927292101886,-0.0234592451947524,-0.363838300053441,0.279392367858517,10.453534962913723,0.10723238562625,-0.0393189916698244,0.108045850180502
500,5000,0.0035779306122638,-0.0174084644182362,0.0080243644978872,-0.0327833142389445,-0.2918143564539244,0.4827382946363124,10.309912415743009,0.0798996413916366,-0.0438167435794831,0.0844461755513713
501,5010,0.0242190933600657,-0.0085636525778483,0.0242009867319744,-0.0093547394511259,-0.1840102561056907,0.1824621713196741,10.172922118090192,0.1174002046615345,-0.0514375728716807,0.082747058988361
502,5020,0.0194632909783626,-0.0099862534981694,0.0324779921515545,-0.0026938456014529,-0.1969224089634617,0.5442182588043774,10.424866097242017,0.0477103749022122,-0.0530214446355195,0.0745319158910485
503,5030,0.0205210103942995,-0.0033258797552575,0.0310607715862381,-0.0218015223455335,-0.2323174865240326,0.2989895837711293,9.833373412501349,0.1083893549688684,-0.0260158946605926,0.1480492906475141
504,5040,0.0244650461352668,-0.0214685433508118,0.0278910110059708,-0.0235500087024703,-0.1938121237085292,0.3858977997633396,10.164466650460588,0.0741792482997008,-0.0688959509426813,0.0782640604099484
505,5050,0.0230864764320752,-0.0285893814354103,0.0198715759019977,-0.0110873033083029,-0.1207087036791395,0.6156120657599908,10.214853457168289,0.07932124491365,-0.0383604800248663,0.1280110603614811
506,5060,0.0142080490641763,-0.0090464455385833,0.017480228703132,-0.001287819375723,-0.307245684311367,0.2171972711235915,10.344422583043722,0.0775801565870591,-0.0414054703594166,0.1022548355458638
507,5070,0.0266025154892093,-0.0123748944337609,0.0427744765675014,-0.0242945337059556,-0.0810436480151915,0.6172183556631167,10.283332770864222,0.1114520168892265,-0.0351922210876442,0.154650099524511
508,5080,0.022833256689213,-0.0164657702271778,0.0252749944034944,-0.0207095409647123,-0.3298452497999566,0.4450302551873807,10.4005697033913,0.1318517252965829,-0.0452380178344154,0.0749472619685296
509,5090,0.0199783399861616,-0.0124285974012858,0.0397672881375317,-0.03052967752242,-0.2295533146726182,0.5412422636496237,10.462704608436098,0.1278380201736972,-0.0496076859041545,0.1017544666882677
510,5100,0.0269913670104445,-0.0160888048045542,0.0286351437662368,-0.018477430057458,-0.3039872189600031,0.3607549004685835,10.29649539765092,0.1071250252650319,-0.0492019572957377,0.1235581905694913
511,5110,0.0305312211019322,-0.0235276528794284,0.0322981551832288,-0.0248631301086757,-0.2169729663411205,0.4061293946388602,10.05994642094496,0.0864358326959327,-0.044121044172726,0.0755281273190317
512,5120,0.0252424956047342,-0.0195342540008653,0.0261093140641259,-0.0241845521426017,-0.3092558168945467,0.4999750451710285,10.316447063270802,0.086608889049991,-0.0339378710042661,0.1543502352914745
513,5130,0.0189395127745793,-0.0271305533739037,0.0383451521999028,-0.0224448151411083,-0.1877304855944004,0.2678844631201282,10.26133072907892,0.0948793020222933,-0.0261388181870676,0.063269909216082
514,5140,0.0246246545715265,-0.0233314029171072,0.0296915084320791,-0.0328623988011904,-0.2099604816562585,0.4687468553874654,10.355485477584482,0.1275576622812366,-0.0581488920379571,0.0947754564750126
515,5150,0.0132132729802375,-0.0313456139278964,0.0231942827257024,-0.016856075136635,-0.4271688614555194,0.3820941155448574,10.446150966659731,0.0857435275269836,-0.0420478853578803,0.1484666063129732
516,5160,0.0091660802789413,-0.0344753562148413,0.0149652810089893,-0.04144181774198,-0.2665976256969234,0.5319471490335376,10.640587424244057,0.0909947235377616,-0.0358324478597371,0.0844399788632391
517,5170,-0.002518136733291,-0.0323905384676871,0.0220063313049243,-0.0297282682831719,-0.2167064803181441,0.4274813420477966,10.30126604103799,0.0723951447873755,-0.0181198108938897,0.0933893006409669
518,5180,0.0309426012252815,-0.0081367016410842,0.0181253678001063,-0.0380297471081027,-0.2520703161470441,0.3376769711826178,10.313214294824755,0.0939161727889575,-0.0656702706819062,0.0901549699054763
519,5190,0.0190066201033872,-0.0332822459681917,0.0176044773548652,-0.0307866282982365,-0.3386163733531657,0.307378277468836,10.443780380950328,0.088353164017487,-0.0499086289384427,0.151148246224598
520,5200,0.0194523179288099,-0.0043385612131114,0.0169171865854601,-0.0553951268748154,-0.177895121270622,0.4620512753495022,10.09154041828703,0.0848828828214962,-0.0495339440944342,0.1479148996473185
521,5210,0.0278531047972304,-0.0274972287732296,0.0154208591794639,-0.0466257214492307,-0.2256290583304588,0.5123183061889179,10.258946164645478,0.0545918501281468,-0.0267789984932347,0.1054189999389595
522,5220,-0.0069908343453213,-0.0340629013547042,0.0179984525617677,-0.0484711090582042,-0.4680404832969241,0.3250314416479389,10.418392233590785,0.1501775123908867,-0.0428878805946372,0.1040573516577083
523,5230,0.0083845429585076,-0.0494802281494353,0.0143037058290319,-0.0565097873796151,-0.1715415705949589,0.3694788274684554,10.151794778659305,0.1294624006688306,-0.0459847880912476,0.1947128644827785
524,5240,0.0027200573752903,-0.0372752713987447,0.0204209033306059,-0.0532358319472975,-0.3212109441386397,0.4061734100773553,10.20108580456734,0.1072552289759645,-0.0448441861938254,0.1372793246295019
525,5250,-0.0052221960434753,-0.0582298224475198,0.0050301654592192,-0.0223400914238754,-0.200118924251812,0.4957795696823348,10.227071337306848,0.1284814140272048,-0.0413423987389822,0.1759114444144174
526,5260,0.0183868570695358,-0.0447228347823788,0.0159405794462455,-0.0420953698709008,-0.3011801025720851,0.4100842549668831,10.151061875304077,0.1347743409502789,-0.0416977887357918,0.1769642734420405
527,5270,0.0094545294281539,-0.0243234494472692,0.0024955897347616,-0.0573232492546612,-0.16663851019802,0.4215412629317788,10.41471459673557,0.0913690319158596,-0.053567172411931,0.0895942357535049
528,5280,-0.0131424730770589,-0.0549976290386492,0.0139909325259551,-0.0480881083256121,-0.2248656003353354,0.3354035724593863,10.015661064354289,0.1210118761548057,-0.0514350352388107,0.1777503713587266
529,5290,-0.011453582728982,-0.0689385446454594,0.007121397273556,-0.0270730701644855,-0.37700494254606,0.4573143472550123,10.335419016080468,0.1015428927755493,-0.0479789843958061,0.1149689167417989
530,5300,0.0030397351130772,-0.0515793407694413,-0.0082745336862955,-0.0578582187129132,-0.1570621468910016,0.3533891311475239,10.120576363556728,0.0926642110680251,-0.0455490875124984,0.0782651490487205
531,5310,0.0087421717877928,-0.0620878805903368,-0.0084661986098067,-0.0505333109530196,-0.2325711608999587,0.275281534855989,10.40092712126084,0.0941302461293773,-0.0540798296196634,0.1048493664300429
532,5320,-0.0142689911754679,-0.0488123288646707,0.0117899433138816,-0.0587102316450009,-0.0891083094939628,0.4894650219363914,10.348738133663254,0.0960905396434182,-0.067480170652947,0.2065601660276805
533,5330,-0.0112106990828634,-0.0495973121273574,0.0008283126350875,-0.0519295978861117,-0.3211832998721269,0.3688537868322255,10.34219901237576,0.0884638314714704,-0.053634949015083,0.1275029004570017
534,5340,-0.0069246431899323,-0.0538778361448859,0.0025015386424333,-0.0633048003567073,-0.4703188788829063,0.4947691684895176,10.44649958286431,0.0802581671700986,-0.0520549541559111,0.1650186449993625
535,5350,-0.0062699529921624,-0.0520655691232845,-0.0130210158409439,-0.0660366041595179,-0.387922224031818,0.5592742644735935,10.484491455356892,0.0586695224200516,-0.045813182646999,0.1615695043420521
536,5360,-0.0131003846435929,-0.055329001248317,-0.0072551118195674,-0.063870028100819,-0.288051918291484,0.313384585857871,10.242549693298235,0.1506461434148128,-0.0720788139669899,0.1430388070001731
537,5370,-0.0108561872007808,-0.0759935643341502,0.0004937636712276,-0.0712051476164242,-0.1809307470617301,0.4851364712415864,10.229406622759438,0.0690130242622263,-0.0675822657524089,0.1407727032477015
538,5380,0.0024292115746737,-0.0543664781422644,-0.0004605807557737,-0.0799611928941818,-0.4075836179956069,0.6448892281305567,10.18527586236995,0.1056546989330007,-0.0363859874475233,0.1832025546997506
539,5390,0.013601132485748,-0.0459804247649352,-0.0004285745545777,-0.0526316962920513,-0.3200697396388754,0.3526671080972084,10.273554886366462,0.114596351796917,-0.0384951218886885,0.1378673869325602
540,5400,0.0035539473466955,-0.0522313526348083,-0.0079986665124245,-0.059128548740378,-0.3298620823063345,0.2694117543743159,10.280405060964664,0.0927976630810196,-0.0567665983980936,0.167559530387185
541,5410,-0.0054274632739262,-0.0519695172478819,0.0116660902731658,-0.0610010038983234,-0.3810073035954546,0.4562770670800911,10.21190115602885,0.0866382110018677,-0.0515416885594646,0.1116007536416122
542,5420,-0.0011647819390053,-0.0556700406247306,-0.0191512540647086,-0.0567464764551673,-0.3699710068666904,0.6990186947659619,10.338046217342052,0.0709691701888092,-0.0650328658685555,0.1184843849471366
543,5430,0.0033686596688569,-0.0341908188620184,0.0236123331756084,-0.0385727585194523,-0.3390335707886336,0.5330483184977535,10.02585017384115,0.0708886578136152,-0.0401283060304208,0.1171010040674133
544,5440,-5.628762210666558e-05,-0.0575028093880765,-0.009010783715653,-0.064359144558611,-0.3406906965802622,0.4438704859036004,9.984692781678078,0.0948874476901935,-0.0531371918258064,0.1447014377758127
545,5450,0.0180488028319522,-0.0458183163479831,0.0097910630961835,-0.0529812544312216,-0.3217735770752293,0.667827447726993,10.238137632448357,0.0872313749281279,-0.0538474236275371,0.1469878665224235
546,5460,0.0147323153289474,-0.0321718732094658,0.012316186725679,-0.0491153950723946,-0.1157324603458916,0.5174365236907814,10.384155321785476,0.1080517826144573,-0.0689388555068443,0.1571032426396879
547,5470,-0.0034734108408383,-0.0771285501870109,-0.0006829418636905,-0.0518542597285547,-0.4296669914985048,0.2600472796765958,10.277543138464594,0.1102665954226962,-0.0591383980571955,0.220580330824076
548,5480,-0.0026306138822562,-0.0351478091628811,0.0044072809234224,-0.0361505037580337,-0.4000116830249388,0.2909672222285143,10.522776884275071,0.0689581727407032,-0.0584153333212384,0.1871963783561108
549,5490,0.0162810783430737,-0.0611821123668719,0.0161146960123674,-0.0380338205570595,-0.2975582710627946,0.6818233204494663,9.9369319429154,0.0779013883588447,-0.0405581789622078,0.1842093628217163
550,5500,0.0220021523250079,-0.0449667730560814,0.0139054662716286,-0.0591871631948828,-0.1409211094592572,0.5345545913526428,10.53961147983595,0.0998355991030211,-0.0486759978138151,0.1873917790281394
551,5510,0.004344750939256,-0.0374104542915873,0.0138939355215789,-0.0291241284157136,-0.0543355966126183,0.5217334418982037,10.335542801081242,0.0681785272555448,-0.0583144253270966,0.1526466471067388
552,5520,0.0207775802705094,-0.0242236194673566,0.0333158900543246,-0.0311357017530723,-0.4056947862900514,0.4683602089036838,10.108220976789765,0.0540219156937885,-0.051554535928505,0.0981943607880044
553,5530,0.02530795061649,-0.0095775673760514,0.0187895405074287,-0.0436005021606689,-0.3084319820070967,0.4739679248050156,10.159834489900469,0.098910439512042,-0.0547257210626721,0.1721210996002373
554,5540,0.0122621275823322,-0.0366626971646667,0.0158066057617685,-0.048310433613697,-0.202080856999113,0.536998976803882,10.43584044677418,0.0631197897410708,-0.0327641897252891,0.1888136137290893
555,5550,-0.0043881404448873,-0.0401324229476294,0.001709885860167,-0.0529799331424581,-0.2054870848739177,0.377664978358307,10.35219347946562,0.1275598257994455,-0.0464188180588193,0.2002724199986837
556,5560,0.0240089476432742,-0.0139874959329044,0.0250524888411326,-0.0465869259720128,-0.3733467566098243,0.5210641773465771,10.399725434020542,0.1062464768826121,-0.0373336351258391,0.1142110373685708
557,5570,0.0166571268247319,-0.028755007946643,0.0212918541788355,-0.04948294057117,-0.0794382345591833,0.4586686619578872,9.88877992509486,0.0989311435138599,-0.0522303867997152,0.1075209007449288
558,5580,0.0165929732456454,-0.0240188107101434,0.0161558370854257,-0.0454738936243462,-0.4598129704454007,0.5656589578158254,10.259611494528151,0.0569241957347085,-0.0574828211644164,0.1580014905623795
559,5590,0.0348939205970424,-0.0338224655073428,0.0284523323104774,-0.0623986582524837,-0.1634167437778548,0.5587793143600418,10.363465471126853,0.0755109116532507,-0.0483250031929673,0.1422009605383435
560,5600,0.0062797564322301,-0.0477517660023618,0.0053942405462305,-0.0523308261593522,-0.3004421197746543,0.4385706415672022,9.950870447179616,0.0769878996018641,-0.0478801676502278,0.135598134301581
561,5610,0.0292344757388038,-0.0413853106611807,0.0159606548196452,-0.0398412537298676,-0.3759935324249238,0.4926993188389721,9.836062539748372,0.0721497742834542,-0.0483936383887485,0.222334044725796
562,5620,0.0199324621882179,-0.0276256165109031,0.0401502938786692,-0.0402664357814522,-0.0318061519786572,0.6659841032788005,10.111026017484445,0.100887522519074,-0.0441525198633213,0.179618387201277
563,5630,0.0167710597511109,-0.0465144041283041,0.0247009290837892,-0.0441116959627744,-0.3865792058336214,0.7002941706554854,10.147778312245032,0.1126331798194183,-0.0506725302943778,0.1713778139459363
564,5640,0.0263361477674212,-0.0359575710711141,0.0099370042864859,-0.0316514886640528,-0.4088124154764275,0.6034115559926689,10.159605683258926,0.0693632580419791,-0.0320803343548116,0.0850074568453264
565,5650,0.0315576634529814,-0.0291228025028662,0.0335625210377276,-0.0285197833362909,-0.3150778374263598,0.406341502141528,10.590122168382589,0.0816180823985408,-0.0410216796611204,0.1454509374695656
566,5660,0.0237243956376848,-0.017932455120691,0.0159454005781116,-0.0397822671726105,-0.1587338664402479,0.6269747658516783,10.330615842985678,0.0608438951257101,-0.0620564873753061,0.1867602004745558
567,5670,0.0290545512405605,-0.0467347153433709,0.0277726133434726,-0.044359197421008,-0.3873664455540458,0.3516401532508087,9.996722653797882,0.0958084949709416,-0.0495413753981668,0.1256763857253221
568,5680,0.0177659803312657,-0.0479591294822324,0.0304935684486052,-0.0484568900242072,-0.3625511360015911,0.6066302458499551,10.142118188285332,0.0956399529663406,-0.0369119318932006,0.1515130106128709
569,5690,0.0023899896859445,-0.0346950893505963,0.0010194069166994,-0.0504666324403032,-0.260814072064966,0.6545909180440794,10.561947014453688,0.0649239960556104,-0.0484401687562343,0.1097004614411224
570,5700,0.0120568101213321,-0.0550789575376509,0.0151161386643724,-0.0575343572207072,-0.2896954498333371,0.3922043900418279,10.026858040148385,0.1015848240490508,-0.0536448427857192,0.2098200237179152
571,5710,0.0235954054668731,-0.0598867507287207,0.0339250479559801,-0.0437470742047161,-0.3501688826406633,0.5935915538698673,10.221924002713346,0.0637066521966457,-0.0381299575151966,0.1513214867112384
572,5720,-0.0067745488810679,-0.0352335972901849,0.0264247808307421,-0.0533028162341928,-0.3541476750305789,0.4303426821224874,9.937471441487489,0.0762683122071868,-0.0470811953002354,0.1644906444093001
573,5730,0.0345136550679127,-0.0418322208040696,0.0324093225491775,-0.0511395887304691,-0.3806406513949395,0.6035982903830638,10.471599256632311,0.107775846150751,-0.0345255121252226,0.229296028704315
574,5740,0.0241096774890983,-0.041921331495844,0.0226485119737544,-0.03982125841231,-0.3652285672703408,0.5522971248002345,10.175315733051631,0.0762869213179929,-0.0537774061780955,0.0937084694713138
575,5750,0.0194292652321189,-0.0254714389078767,0.0190556112694503,-0.0628527719962556,-0.3015445252983486,0.4644029996939635,10.590928521582098,0.0671890698322181,-0.0340572751564947,0.1659936234983749
576,5760,0.0124037301208035,-0.0501426479068764,0.0164372254404856,-0.0611373793928274,-0.1462851651164086,0.481604015712732,9.801577115226934,0.067788538895096,-0.0401568165174426,0.1450907748346865
577,5770,0.0107054935371278,-0.0558525932599706,0.0078118200354388,-0.0608693735249212,-0.4792541235608982,0.6337595635317651,10.511349649430594,0.0749438585283814,-0.0526856222191344,0.1895043149682037
578,5780,0.0261172619230736,-0.0416632129204373,0.0207202959555914,-0.0269284502436774,-0.2662424660814778,0.7876022379812965,10.233830304561703,0.1141367104220686,-0.0529914535987134,0.186154639237691
579,5790,0.006139174088265,-0.0525359635668987,0.0106038655137248,-0.0394309249011143,-0.5925091664972009,0.6800042239010519,10.112497802611088,0.0598148014503944,-0.0649974280017669,0.2089008690997557
580,5800,0.0106516422417521,-0.0294530978872041,0.0254760585129832,-0.0626559697384693,-0.3632789345244252,0.3918577681650907,10.262550959926813,0.0890443318253197,-0.0467127687579888,0.1477491982074314
581,5810,0.0107439495619685,-0.0301460464660539,0.0265846277178114,-0.0578955290815113,-0.1451386787632467,0.4379786157583629,10.141027943202925,0.0649018536410082,-0.0657171033375472,0.1572961531017672
582,5820,0.0086157667545131,-0.0392293822062883,0.0104773904104166,-0.0306314719784157,-0.3008053197834111,0.5532392275915492,9.814122895922472,0.0844278687265961,-0.0412066995893742,0.1591580616289234
583,5830,0.0092979676697994,-0.0524425277335122,0.0263149352054895,-0.0590509867173945,-0.1929816737888365,0.3769037937353699,10.071796602555985,0.0645074350040066,-0.0490672930174793,0.1837676697608289
584,5840,-0.0103901500677751,-0.0567692244627452,-0.0004186564703442,-0.0537844537789398,-0.3980480271030615,0.703583396947341,10.002315597866364,0.056211340027542,-0.0304935735692855,0.2062165311591212
585,5850,-0.0039071281745249,-0.039202550137085,0.0430162357860871,-0.0488639253453012,-0.3119174207850042,0.6742118653912982,10.163389291186098,0.0675677276193849,-0.0248371427848699,0.1817067051876172
586,5860,0.0019889607776763,-0.0382753840972986,0.000737559339309,-0.0513591449086438,-0.190436168889183,0.3702479757058428,10.175566641724954,0.0486218365753519,-0.0506848197940563,0.1560379257736289
587,5870,-0.0005951194960507,-0.032924318947152,0.0320681748680301,-0.0645786799402598,-0.4450408530425597,0.431346394226687,10.32229103944946,0.0802686429324758,-0.0367920172850352,0.1009600542243875
588,5880,0.0063820568429832,-0.0402211696252138,0.0126729343483886,-0.045559885140461,-0.4036404697644261,0.4786131645467144,9.932606030695402,0.0354757128180181,-0.0390230721178876,0.1418301348007784
589,5890,0.0416195650284106,-0.0419930272926249,0.0190869146485245,-0.0245381406783209,-0.256855823458331,0.3866897476092723,10.552948329655528,0.0669262051324137,-0.0609216431022261,0.1685548282705366
590,5900,0.0259126601602092,-0.0373357214027822,0.0303097638741758,-0.0512493839139696,-0.2975142637740943,0.6261388967798883,10.390574878130398,0.0617233564792992,-0.039917295144547,0.2212504320488205
