index,elapse_time,susp_fl,susp_fr,susp_rl,susp_rr,acc_x,acc_y,acc_z,rot_x,rot_y,rot_z
0,0,-0.034857128185425,-0.0115725256440886,-0.0344052829701796,-0.0040025645750229,0.2664440024742983,-0.1687527503837819,10.380844952047156,0.1093190694244844,0.0488280064979386,-0.0960732100642874
1,10,-0.0324410170516325,-4.664725615788562e-05,-0.0314454775748402,0.0005901824065542,0.1236627331065681,-0.3660364972668378,9.71473934200094,0.0980031156613601,0.0366203945688159,-0.053947211574822
2,20,-0.0259157477690641,-0.0132836880559324,-0.0286221353064308,-0.0042226528638657,0.266283131642743,-0.3232549132551752,10.350309453750418,0.0767153266352505,0.0402896091889716,-0.0943464147597113
3,30,-0.0277868950009573,0.0029734805484915,-0.0121957937643212,-0.0019127278780609,0.1539811701941572,-0.2983233414473431,10.348477595788966,0.1014363175297869,0.0246768071273468,-0.0434825691817589
4,40,-0.0033935708648168,-0.0146292079820982,-0.0372302837928519,-0.0017940784250359,0.34093182919032,-0.1689113987787199,10.022329896158,0.1064189487410461,0.0546190507945538,-0.0492457529976197
5,50,-0.0327484442242851,0.0123965176586781,-0.0172068615052328,-0.0022851244109899,0.1962563404992791,-0.2733695429349428,10.34626467524382,0.1067017933274881,0.0396853671010191,-0.13471710494833
6,60,-0.0285113876078083,-0.0158771928468914,-0.0231155365525224,-0.0138349944421974,0.4907850811689465,-0.1128189724455493,9.980050562517354,0.1119179452798226,0.0348184803091954,-0.086598176515592
7,70,-0.0449361010980685,-0.0207839790804469,-0.0373502612310941,-0.0134348719431503,0.0631906094056904,-0.2898471765406567,10.242852013275364,0.063801136397321,0.0317455220061576,-0.0683051009160971
8,80,-0.0460179860349128,-0.005909539808073,-0.0365509067556725,0.0002935156739108,0.185316241037433,-0.2617024790179456,10.28081280631515,0.1067968425275804,0.0269143549447306,-0.0626712761039014
9,90,-0.0450264776129523,-0.0006387195267164,-0.032638842123385,-0.0093894551119289,0.2124699691936294,-0.1939529821229118,10.079019903009131,0.1251380395887181,0.0112633182952825,-0.0184827585869295
10,100,-0.0401025704076059,0.0117761954153904,-0.0511453737592536,-0.0039283357016011,0.2174616552639443,-0.1027420425590343,10.173260937119402,0.1215751929769203,0.038149558671843,-0.0691225193180463
11,110,-0.033201599267079,0.0057919782187924,-0.0214670480047111,-0.0054951287228092,0.3076209432459819,-0.1722467850396651,10.446116407932005,0.0878915964700347,0.036150793029562,-0.0496412307197057
12,120,-0.0294349957035511,-0.0053829429703897,-0.03758137676452,-0.0023185616824356,0.0981941651585503,-0.2545178440346367,10.270013007000658,0.0852776283943664,0.0396830834702189,-0.0981162431312552
13,130,-0.0345091900623592,0.0091949896037012,-0.0440164675362816,-0.0035739579868335,0.0689521115980922,-0.1450741139708442,10.502200431023583,0.0895126097981243,0.03452942075766,-0.0969115821509341
14,140,-0.0266823769977654,0.011653975913973,-0.0312769940410909,0.0139744036736615,0.0224787316597289,-0.2716459698805128,10.218506758826782,0.1003512969749719,0.0403079352089386,-0.0833070991964183
15,150,-0.0274536717744604,0.0117518189187081,-0.0324066159890282,0.0086313839036331,0.2304908154462636,-0.1389718099496834,10.119178642673964,0.0849558427073292,0.0468717590301303,-0.0674254931958827
16,160,-0.01651441416565,-0.0039880321508929,-0.0189927345166627,0.0082146245068786,0.2605594269133766,-0.3576546317156162,10.348691698058392,0.0874342103964784,0.0401125708531242,-0.0976822388075366
17,170,-5.148116893293961e-05,0.0279760455470495,-0.0147614015783919,0.0186308541068177,0.1938797497037366,-0.3468338180449779,10.39014705461836,0.1087439023796614,0.022800180823433,-0.0529749263271458
18,180,-0.0159476602792649,-0.0110331631754396,-0.0475528865142166,-0.0028809054203532,0.0312280228578285,-0.3764564626941143,10.162050155319871,0.0997419550858778,0.0367642298999099,-0.0959241393467389
19,190,-0.0332861791736673,-0.0049790290485867,-0.032302197757157,-0.0106654320632068,0.0321444757787679,-0.2160117036066378,10.503155218438796,0.1033161470240325,0.0207537436029058,-0.0871142295213873
20,200,-0.015903584575813,0.0281906093449761,-0.015881832539984,0.0175344853696688,0.3544093761040369,-0.4302632180629987,10.540319248271954,0.0875781198422244,0.0298449885732414,-0.0555905117494675
21,210,-0.0057610665004547,0.0095686954686939,-0.0045287929837451,0.0193872326984203,0.1175855885760672,-0.4510581540508241,10.219593911787417,0.0625941001664349,0.046369341324599,-0.119353412002836
22,220,0.0035413254949079,0.0246860004952471,-0.0027820753847733,0.0143581489081845,0.1936355502954885,-0.2030608971962166,10.377084417205872,0.0870658647653083,0.0075567896488053,-0.0739960039475328
23,230,-0.0325582886329112,-0.0012672808197529,-0.0057390812304201,0.0107137656229736,0.1948524722913826,-0.1532357441168686,10.592449315352376,0.0897046788155653,0.0276203880447789,0.0062273751045103
24,240,-0.0196391538662586,0.0348165751355342,0.0112635128633056,0.0360506796211042,0.3085806741214715,-0.2969225130311035,10.594798108622268,0.0775215480291127,0.0272113931401985,-0.1245816310696707
25,250,-0.0366688531564631,0.0169416565043205,-0.0187085493253472,0.0084695690794688,0.077425094522483,-0.086873802652373,10.51994953101607,0.1168457469700006,0.0172602706101002,-0.0832036518074043
26,260,-0.009478786048496,0.0259928443876011,-0.0017542402110815,0.0165055331895986,0.0765966303445472,-0.0757654369021036,10.1940073369779,0.111415853084924,0.0235869066547135,-0.1230472140702505
27,270,-0.0263726456198957,0.0203061214595982,-0.0037413188361802,0.0211090053034231,0.1134626347643034,-0.2557801650043419,10.02945476270158,0.0804943168682796,0.0318840820338519,-0.0933513448810154
28,280,-0.0161520631464844,0.0278183129525334,-0.0069312882295908,0.033026730299756,0.0385231234759863,-0.3575443116510838,10.39510974101636,0.1295574999095931,0.0368798317866986,-0.1176069716229933
29,290,0.0127010806122766,0.0338712106611253,0.012946058654822,0.0460324480330283,-0.1828715045271915,-0.3441463666548801,10.049507236131127,0.0725455873402932,0.022046662811173,-0.0994384399619838
30,300,-0.0173088274106646,0.0428662284963624,-0.0050461490901989,0.0219363376199558,0.1394710760672939,-0.2263287307120531,10.283497728363,0.0842362251312365,0.0129264575258851,-0.1151636743971072
31,310,-0.0096433895199349,0.028505415832716,-0.0069384035185563,0.027467594864324,0.1492114930430843,-0.2416385174718786,10.316302559030444,0.1253118961130405,0.0398351398187137,-0.0483496465847862
32,320,9.258614309934052e-05,0.0471664558486956,0.0263797702653763,0.043853949407044,0.0674374609592757,-0.2291419564336373,10.2253890849006,0.1068623890927727,0.0404192711942045,-0.0906488591782703
33,330,-0.0032943572788674,0.0539394261995804,0.0060476918522856,0.0386268260707389,0.2923312806776416,-0.3391335622742114,10.10469724947209,0.0859180597577934,0.0255354760165423,-0.0481844424040355
34,340,-0.0072112865655289,0.0377968788757536,0.0059236911966281,0.0390202374911861,0.2356112130732219,-0.4017196162055404,10.3078243429495,0.1086474689976894,0.0067037568425322,-0.0848861651815574
35,350,0.0066654006198173,0.0407983679637655,0.0117876724304205,0.0322235880518549,0.250875105726665,-0.2887328364901434,10.217683932366729,0.1176928452915045,0.0160658069234106,-0.1398381261207087
36,360,0.0073056691393832,0.0450180917519998,-0.0099428173945215,0.0270463847398289,0.1805274426626321,-0.3080629918473309,9.965568379936188,0.0852615672929422,0.0338250464010489,-0.150323839885194
37,370,-0.0083253552477435,0.0253770774377968,-0.0015861038566111,0.0470323904276095,0.2571147522098732,-0.2087345650530561,10.518457965318026,0.0855102018391312,0.0098960027810519,-0.1123163516191012
38,380,0.0089419730138698,0.050105220693467,-0.0099046700689362,0.0321284455888087,0.2439029551388584,-0.4195586854573288,10.573175339751751,0.0906889804127028,0.0230295675819909,-0.0977363352454063
39,390,0.0006650787031208,0.0327222946643893,0.0033187478049138,0.0366049233233027,0.1458333555917316,-0.2722671490154529,10.237605754406223,0.1169141432498182,0.0321278723535234,-0.0937640777223461
40,400,0.0009031050830174,0.0288557780411222,0.0026960154416342,0.0405443105548483,0.1427906262531051,-0.2107393782246214,9.963743414390985,0.1202363056465847,0.0079824755995047,-0.0892237706751217
41,410,-0.012954565553095,0.046756274999223,0.0032703128413699,0.0379275202710762,0.0621375136559918,-0.3464831771384409,10.534572025189554,0.1025547117196816,0.0205057501540295,-0.0925511889650754
42,420,-0.0221264382205334,0.0421394394990859,-0.019970776815592,0.041692716225153,0.1428001148169064,-0.5177625465346066,10.525675179294463,0.1245916941217033,0.0108960289503885,-0.0578071658838956
43,430,0.0072623996658552,0.0603722616340034,-6.640829449517348e-05,0.031841275786713,0.2456564287156914,-0.3716891555104739,10.076835691118117,0.1300495293540131,0.020943895953524,-0.1382651469340403
44,440,0.023024124360915,0.0320702979148984,0.0011861000746602,0.0252832793330423,0.0978188453718426,-0.537235100470205,10.225964841167592,0.1068780335876036,0.0193068881077343,-0.0549088960688548
45,450,0.0018337652696849,0.0397118524428715,0.0033595706970326,0.0403156103404267,-0.0386694291470374,-0.3307113515705119,10.504952662288057,0.1536689750709655,0.0122076516360783,-0.0873995848400298
46,460,-0.0066675974000177,0.0347207661182943,-0.0156591125255959,0.0348740309159054,-0.0081836152953184,-0.1892361659894225,10.210655109811258,0.0626921327417199,0.0110256160125734,-0.1136525618059627
47,470,-0.0089663019369962,0.0375930798577272,0.0027473263623359,0.0156652302017356,0.2375520518547879,-0.3262678852171631,10.32027713802823,0.1136713572178931,0.0086990728057977,-0.1003265099174434
48,480,-0.0024433032924235,0.0405442975873949,0.0048876344656643,0.0103935972361158,0.1458042011394652,-0.1851312175094496,10.287660520603678,0.0941123371631107,0.03751886757259,-0.1205443209458274
49,490,-0.0026953482389876,0.0337176600118258,-0.0191327154382297,0.0270606156239674,0.1840322625466694,-0.3598275922073549,10.689633674436326,0.1192628708995454,0.0066614025593863,-0.1161833523690916
50,500,-0.0125886297815113,0.0284791897588405,0.0032802502028304,0.0300398850470957,0.3363310423355767,-0.3716982900595261,9.982696307656534,0.093348764667532,0.0120988500388469,-0.0766056144732403
51,510,-0.0061998196229045,0.0228295004028612,-0.0129797625909362,0.0507528547373123,0.0756743687490439,-0.4201910805800459,10.335891345030191,0.1113844231875039,0.0336644967785406,-0.0696233697171643
52,520,0.0001470731918886,0.0445659489561478,0.0001888295074131,0.0466749761794334,0.0943405033536808,-0.2648539724371309,10.2626319975983,0.0560687097769696,0.0318294722356445,-0.091053377130144
53,530,-0.0064483776139731,0.0432554481320184,0.0025896284051906,0.0490651733115635,0.1139733452986078,-0.2399910811713373,10.202371075686193,0.0920234512410461,0.0084749145605568,-0.1017602848488839
54,540,-0.0187276521753715,0.0283384328723835,0.0091135222297247,0.0344475988490979,0.0884316774918319,-0.3542949592049571,10.170410391609993,0.0878807438482801,-0.001872601097601,-0.1242793869908753
55,550,-0.0103350853189761,0.0316718742827249,-0.0116102963942197,0.0149663129689194,0.0038772134029488,-0.239795710506564,10.504649269520945,0.1162186784382236,0.0236856629014883,-0.0875507682516041
56,560,-0.0142919516054535,0.056407060510026,-0.0110299988444476,0.0346701487570304,-0.1486730765645611,-0.278814628602351,10.451312474708848,0.080960360579459,-0.0014910395358235,-0.1020089521177635
57,570,0.0008482749198051,0.0356807847254183,0.0056795752560554,0.0200628539473834,-0.0022559623659908,-0.470360761925332,9.99413504352022,0.1106192063966547,0.0222937655574664,-0.1481980484510909
58,580,-0.0113864975022519,0.0005773646320941,-0.0325484513818436,0.0241432611500704,0.0167611778509085,-0.5382418382382608,10.613109010107824,0.1207779198123913,0.0211805279350131,-0.0981386257628278
59,590,-0.0221642855985681,0.0494885563922246,-0.0034883724823092,0.0223789004557304,0.1910023427248322,-0.2196766437188055,10.395633747831944,0.076025719737314,0.0044628757597772,-0.1299551055038573
60,600,-0.0097137594266414,0.0326078821418716,-0.015174991850113,0.0282410093310009,0.186276804074191,-0.3714115093154734,10.222692851319376,0.1040718438945884,0.0220374429842818,-0.1259845728286142
61,610,-0.0178946214937928,0.0258542796930753,0.0018029628396871,0.0340413439114876,0.1410946635333078,-0.3745068321124757,10.252700650021724,0.0728578821413033,0.0118098612985435,-0.1143288324933756
62,620,0.0003489057730097,0.0591300467010149,-0.0170741688534347,0.0331778865686201,0.1018575260442604,-0.338453894525318,10.2029890753001,0.0788788810006927,0.0211902249324711,-0.1224430623219643
63,630,-0.0167644061706472,0.0293538296642704,-0.0186212656708327,0.028837771631998,0.1718290822090863,-0.4739987576824912,10.484316691886804,0.1021245362894021,0.0030366469330916,-0.1194194886370625
64,640,-0.0165503278249403,0.0446995825048427,0.0028925309982013,0.032785495141875,0.2049951804593243,-0.4984406325898072,10.298179448070533,0.1004916020688595,-0.0011989992528579,-0.1494330387010079
65,650,-0.0057833706077783,0.0438324397233567,-0.0010738908895844,0.0282239948113413,0.0698762095595398,-0.3854997591160822,10.247721223351084,0.138516490165131,0.0127998227345919,-0.0678597149192402
66,660,-0.0014801963433024,0.0487340999100026,0.0089026640780545,0.0389250429734616,0.0674411922664173,-0.332626504410723,10.260068481211414,0.0921470614351576,0.0168974905378789,-0.1228813163105924
67,670,-0.0069774165128846,0.0446358375252721,-0.0092913055661312,0.0153979774526331,-0.0969504361373879,-0.4883174960121519,10.35177482979996,0.1067187395430459,0.0234871502151301,-0.091997738794302
68,680,0.0087485095643432,0.0310681046382371,0.0071283593563874,0.0299572149717978,0.1070990545054556,-0.3578758843919279,10.52694906230444,0.1065056740054442,0.0024617216230188,-0.1661892535374849
69,690,0.0069346999127224,0.0458592471389853,0.0021088924418689,0.0572755060517075,0.1307501108014084,-0.307806195786705,10.297123903674722,0.1160719813667885,0.0126137896304659,-0.074692081008905
70,700,-0.0107286248980466,0.0449234554042064,0.0124161813704209,0.0319860901219054,0.0262609240750037,-0.4700942857886547,10.55616088541416,0.1090663434613636,0.0420583957677218,-0.1583268210748706
71,710,-0.033336221071204,0.0455007846808721,0.0033008809527285,0.0175292135936387,-0.0589725641557056,-0.3627803831579761,10.130320384144396,0.1014956324521175,-0.0007007807783491,-0.1259776591255708
72,720,-0.0063965902323229,0.0285979065742737,-0.0055611563642128,0.0512379883910311,-0.0072522940645004,-0.5770182659566558,10.520248788881094,0.1131970523716531,0.0103970474688934,-0.0665783572232441
73,730,-0.0118832976420316,0.031323642579464,-0.0022252850841099,0.0364407675029552,-0.0308502291017258,-0.3342988860484965,10.38554226560554,0.1022846332990393,0.0079657702201507,-0.1812875835389893
74,740,0.0032499721323498,0.0407129319538456,-0.0098362181974793,0.0183761819901364,0.0509566584161598,-0.5843951949266768,10.243636678429286,0.1139929228918024,0.0154733562326942,-0.1200593115480563
75,750,-0.0167751376443639,0.0349364759939614,0.0128480137358194,0.0550505055232872,-0.0506642872764842,-0.3696576934046546,10.317946516300722,0.0869084276875526,0.0027819206651344,-0.0817166256902995
76,760,-0.0031752886333787,0.0415623859422736,-0.0149390279533505,0.0600444812305269,-0.0596849304009835,-0.5927905582766105,10.245253192134816,0.061329105794375,0.0147007140719373,-0.1146663279195874
77,770,-0.0042652551180373,0.056467097369166,0.0040067405699261,0.0425844693024064,-0.2099381892440708,-0.4529187090089926,10.266079739383873,0.0776420009033962,0.0092932704284849,-0.1466117968846
78,780,0.0266298308952192,0.048051176523341,-0.0057431991213407,0.0552047331985953,0.190201885830728,-0.4025626328717707,10.334046844245387,0.0983419285648359,0.0006811732103773,-0.137062163574365
79,790,0.0075447077231855,0.048321151624697,0.0166614610655081,0.0502413293671778,-0.0420416654469402,-0.6049820110676238,10.26135204965576,0.0853821549231926,-0.0093698106155731,-0.1669458124350187
80,800,0.010280107370216,0.0484013166641059,0.0107846428897894,0.0452567673459912,0.1022189373676335,-0.4373037008963478,10.07279974841675,0.0782863824522128,0.0097206238964568,-0.0751153608443002
81,810,-0.0150899857259718,0.0684314623035346,0.0019771722686524,0.0504059877816294,0.0742370875792031,-0.4881903467945563,10.11575189843551,0.086750555733325,-0.0056928568363146,-0.1522858875057719
82,820,-0.0112731782986594,0.0541943092011035,0.0164272589969204,0.052018407081873,0.1349196109578127,-0.4796604219624338,10.39434031812598,0.104973828064265,0.0021353759068815,-0.1139420143602723
83,830,0.0057937685778136,0.0512399037703856,0.0203711461842519,0.0551696294752917,0.0298019618967084,-0.4574480858890002,10.130662564671722,0.0311624789523936,0.0205711731697507,-0.1684188114960733
84,840,-0.0009706780118096,0.0599102028255778,0.0032400396059036,0.0613807807877818,0.0821171960624561,-0.5368502845184782,10.08967134319881,0.1139083064466462,-0.0036081124606882,-0.1752202720255859
85,850,-0.0139843682803659,0.0434603011524602,0.0111885991900313,0.0647431552496535,0.0079242036219084,-0.5361163058076467,10.209270645776424,0.0940335421875549,0.0144197449942827,-0.0895224507890046
86,860,-0.0002366889439437,0.072865617563543,0.0242671332965046,0.0534850698404107,-0.0561745891595229,-0.3842584252092585,10.362452932279588,0.0962131289550155,-0.0041173655173643,-0.1331265185673286
87,870,-0.0115497156572399,0.0397109338990571,-0.0055703967062101,0.0415962284388106,0.2038208742270615,-0.4948475420816828,10.061464742460764,0.0953452048420021,0.0051256035521325,-0.1105673514435668
88,880,0.0180752160939754,0.0504640806959714,-0.0003165452290623,0.0359770340556515,0.0651044774180238,-0.3418183393751636,10.67206399885711,0.0739143962714702,0.0076948053452906,-0.132698501168974
89,890,-0.0089514540907066,0.0392381053839444,-0.0127444067999342,0.0318437145096346,0.0145490793473448,-0.2365067149094855,10.45145964403036,0.0986796321710116,-0.0107572518421163,-0.1525191136385399
90,900,0.016143949174521,0.0447116395084483,0.0154328477125296,0.0661202863945732,0.0112034240198721,-0.6127828337361958,10.079423114012895,0.0833557998005801,-0.0072852800301083,-0.1035893011357321
91,910,-0.0146520626570121,0.0468309919008604,0.0071349668760898,0.0418846589953133,0.0433261830340824,-0.3291203340172549,10.230232227658048,0.0692250677650892,0.002416569992621,-0.1643829752480156
92,920,-0.0130784487732224,0.0436902621277184,-0.0159213054836006,0.0591271448261722,-0.1021643582267153,-0.4124039174981689,10.153236466937727,0.0995038793973395,0.0061608269304602,-0.1298081088849881
93,930,-0.0015906378608942,0.0368907715033747,-0.0007506288562381,0.0510834609329951,0.0797943602026556,-0.6366058654314701,10.1066118989701,0.054011150911573,0.0014377715263842,-0.080652153861847
94,940,-0.0031110299532549,0.0308120719348659,-0.0296784430156301,0.0473865177937288,-0.1979797302466678,-0.2542771528777302,10.130808289586197,0.0650515950582751,0.0158398501067103,-0.1406511988367966
95,950,-0.0030140801988092,0.0510327870036367,0.0234679739568136,0.049840606726161,0.0237114467481724,-0.3636316338957623,10.33243085490724,0.0796454009227971,-0.0031928607132005,-0.1089442743106832
96,960,-0.0035167054837115,0.0563623548071633,-0.007124998316459,0.0443242078627077,-0.009710754341021,-0.5481094457062012,10.171224805899518,0.066326739914063,-0.0024564897596176,-0.2174490939176411
97,970,-0.0181939417140126,0.0349295285939949,-0.0129046915704745,0.0262648586998133,0.1082888390405497,-0.6576510694771044,9.859872376393168,0.0679200071458907,-0.0082941333443509,-0.1641780781122016
98,980,-0.0002079178348626,0.0507946137807419,-0.0116486119056456,0.0293188494352109,-0.1007550010280669,-0.364026675812892,10.071482257879945,0.1038043250673535,-0.0034951084534673,-0.0783239902883595
99,990,-0.0147944639666533,0.0336414642011624,-0.0256359372141761,0.037357209760039,-0.1701843592107693,-0.443513474298027,10.06492051217228,0.0569864260797438,-0.0010637700107325,-0.1360992912646321
100,1000,-0.0155168082815634,0.038744401579302,-0.0237686923506149,0.0277144692206327,-0.1256340176367995,-0.4719283566845378,9.894886762909415,0.0760630100428376,-0.0168653499078349,-0.1313668225461905
101,1010,-0.0245227820338458,0.0203294450845219,-0.0278332000036328,0.0238739166750842,0.0178940397481246,-0.5419189186651043,10.088305308559768,0.0731073732639881,-0.0020743546422833,-0.1216854443469863
102,1020,-0.0326913398524884,0.023069311332046,-0.0178266337003505,0.0266070227221585,-0.1494742650524989,-0.3934386449261954,10.3322311298534,0.0706134919960812,-0.0206610003086095,-0.0812841884544409
103,1030,-0.0408651648815151,0.0357564980668995,-0.0184946007072306,0.0174471269890753,-0.0778003890353483,-0.4785173720258387,10.321356101874246,0.0841079220187604,-0.0082009349557649,-0.1607008006413715
104,1040,-0.005399678514094,0.0338408698834519,-0.0056289247556448,0.0183549942523482,-0.0981585919579163,-0.4793744983071685,10.362158324245453,0.0634436012671251,0.0040879658297472,-0.1406945134385691
105,1050,-0.0161660887491916,0.0201563661832955,-0.0124212301202751,0.0294334147104665,0.0844251801927442,-0.5504355057251509,10.114206723249708,0.0671016574953232,-0.0026497374083114,-0.1748120148058947
106,1060,-0.0331668163261383,0.0275346785424437,-0.0106707336721293,0.0175758640679497,-0.0601994819520233,-0.4193309303389387,10.189927656042498,0.0646542305973446,-0.0036139450798407,-0.1107029107378726
107,1070,-0.0354179256370439,0.0046845122047169,-0.0299155381343532,0.0153563493225232,-0.1667550792201365,-0.5149865525878284,10.090613194867853,0.0979957955397138,-0.0169303904234909,-0.1509100007153049
108,1080,-0.0380202757393595,0.0355796286498647,-0.0263837557530651,0.0185396138895415,0.0485535849735171,-0.4287761731546788,10.512773991219404,0.0785063831804297,-0.0031905596314621,-0.1573284105722798
109,1090,-0.0191894866793494,0.0099756325966806,-0.0321793571324179,0.025066816765813,-0.092343277100087,-0.447899856441463,9.657365368405197,0.065996679698074,-0.009891898791304,-0.1384328482124132
110,1100,-0.0513399251724264,0.0134099024967789,-0.0315128797060768,0.017390223674267,-0.0101900589874421,-0.4747311686895251,10.297523736424882,0.0561573639206813,-0.0022086963712135,-0.0722863445602447
111,1110,-0.0223371631936151,0.0346076981233099,-0.0164026711436854,0.0370412869327849,-0.0975995076530459,-0.5382162134513695,10.1521995804619,0.0530617244419916,-0.017927212954331,-0.1315902916800609
112,1120,-0.01499958496255,0.0053380447364251,-0.0245130172286556,0.0198328342928999,-0.0839528967137532,-0.4800687161744006,10.281385520650526,0.0874570690555952,-0.0169321893303296,-0.1422322647364776
113,1130,-0.0293932103732745,0.0232030442113058,-0.020809945620857,0.0034945729918652,-0.0758920904496035,-0.2869686771032288,10.35043714397004,0.0274693711428921,-0.0115467177352052,-0.1285734811314175
114,1140,-0.0165621773516827,0.0292261126924181,-0.0341753320013846,0.0376817320142797,-0.1371692679243672,-0.4211911948955894,10.003514187375185,0.0856662291595262,-0.0464670275653947,-0.1016083450236432
115,1150,-0.035337594692982,0.0400193750182328,-0.0104583427231087,0.0332653456737513,0.0080927339510593,-0.4889927217110615,10.220276395476144,0.0436681123764124,-0.0113850685109286,-0.1455438690284107
116,1160,-0.0261412292714191,0.0125858479169274,-0.0276807619709745,0.0180284909225076,-0.0894490552706984,-0.4415371561747359,10.383633520884455,0.0510030673257282,-0.0124763552156602,-0.1150978553433655
117,1170,-0.0194396807422044,0.0340474321632353,-0.0042815336178981,0.0315422669379931,-0.1225228148300012,-0.5557415964755646,10.235601547238108,0.0521384557756791,-0.0144488267903663,-0.1647268750601578
118,1180,-0.0357748830333099,0.022449075640632,-0.0338356489374167,0.0192793676441801,-0.0306308136883923,-0.4584518028349855,10.061456149627393,0.0353887892753827,-0.0121383418768498,-0.1059671165705788
119,1190,-0.0360290836619109,0.0229195384428908,-0.026774141269066,0.0235165775842999,-0.1699449093540954,-0.3947247020069936,10.081699259242406,0.0780406142028109,-0.0031478157578392,-0.108365342105774
120,1200,-0.0321440842492476,0.0352208605898893,-0.0180950683235701,0.031845902896409,0.0628149107367925,-0.4881891649567639,10.129033026890417,0.077484054099597,-0.0194922514333746,-0.1489970236293414
121,1210,-0.0132903543706373,0.0400988326449225,-0.0470386775623296,0.0249119686573719,-0.1832240151928044,-0.4243850089367089,10.260092709825194,0.0584911214495881,-0.015508305436129,-0.1052351916398853
122,1220,-0.0073477819415323,0.035717415438548,-0.0210862257401841,0.0355523586567512,-0.1879201025107871,-0.5526195431417777,9.934150869168068,0.0443407433242663,-0.002787712000018,-0.1225161594731071
123,1230,-0.0045789384170754,0.0249199173449582,-0.0401581727161357,0.0418374337094721,0.0008100660817087,-0.4244714118747189,9.84888459727572,0.0813293801817619,-0.035082764004577,-0.1599676190078818
124,1240,-0.0335807638138361,0.0228705291826846,-0.0149605935972878,0.0269755577832064,-0.112213263508125,-0.4179510517147278,10.047335631585804,0.0398963830544987,0.0037906266848758,-0.1458629354892793
125,1250,-0.0362499360887602,0.0233524079248086,-0.0197814660803831,0.038113571712298,-0.0210913356866967,-0.3928835788808675,10.11501347851383,0.0839424935207328,-0.0210072604254403,-0.1426728207228397
126,1260,-0.0250635489460965,0.03079671926174,-0.0073506186071705,0.0191567664310673,-0.1231072239543013,-0.3586243710182969,10.24285757152076,0.0475847942638106,-0.0231157247654917,-0.1332499888641299
127,1270,-0.0038432361856023,0.0253571618066344,-0.0189174241865721,0.0317837447802749,-0.0652678368419234,-0.6659425104437833,9.844736697480316,0.069043180064485,-0.0086926974347884,-0.1237917602101201
128,1280,0.0023924827007699,0.0164175189225525,-0.0267671600105545,0.040499941622738,0.1484218194322311,-0.4181673531042833,10.34362247308458,0.0505710337395455,-0.0138925100756904,-0.1426724318904973
129,1290,-0.0164279126022575,0.0564129825392445,-0.0088643501407458,0.0478145911670892,-0.1912424287531989,-0.3863851305325378,10.035293793055724,0.0536359725115951,-0.0123888467312017,-0.1596939312787164
130,1300,-0.0265010002367735,0.0335595743456327,-0.0149052173292092,0.019960989029713,0.0141820874755602,-0.4490822818964387,10.37220276100044,0.0239095429501085,-0.0012269151695712,-0.1212524845890138
131,1310,-0.0331124834470541,0.0274768060387371,-0.0327083612621984,0.0221249466961231,0.0453023763026704,-0.4964415171419547,9.883806812979248,0.047570837437655,-0.0146863788738115,-0.1556624794193631
132,1320,-0.0297891523297611,0.0452944022430975,-0.0259577038037513,0.0360640763955544,0.0362577184669204,-0.5939881313121553,10.183563167849822,0.0314839929278499,-0.0247447726316988,-0.1226259330894206
133,1330,-0.0090931054087779,0.0575454609739479,-0.0051485519173799,0.0397464026128801,-0.1963560432673905,-0.4445774249604549,10.409599657464486,0.0773248763431935,-0.0355828765186257,-0.1445920775180013
134,1340,-0.0288561117093336,0.0268029958399281,-0.0415445306538548,-0.0012034899164897,-0.1631247094209754,-0.5142645968451032,9.859882956920558,0.0437672853549847,-0.0106864401766217,-0.1255642377000551
135,1350,-0.0201840636208997,0.0307884521714813,-0.0246316390698071,0.0158521100533895,-0.3317188644767406,-0.5438884212157258,10.339051482278652,0.0714254795239894,-0.0087610931286747,-0.1107165136752056
136,1360,-0.0151881750004674,0.0406164703896321,-0.0050863640451613,0.0207720924323418,-0.1845380750611478,-0.5700585547895379,9.66733509124816,0.0284222126722581,-0.022266919944472,-0.1465583121835099
137,1370,-0.0194749702203193,0.0275695908809368,-0.0524188831880995,0.0184882241422936,-0.1288809338163571,-0.4755841283191669,10.32428959455526,0.0105908389552152,-0.0233992610280717,-0.1617095217694195
138,1380,-0.0273266908985636,0.0146798207604399,-0.0243829471507373,0.0180373788281825,-0.083270298245896,-0.5531811033900111,10.51850874977195,0.0641940450074822,-0.0207515641415328,-0.1210765351131324
139,1390,-0.0397400227064988,0.0219643081266595,-0.0224044878580031,0.0258003793885823,0.0035210979925975,-0.4653962168112314,10.249347163638385,0.0260236546473155,-0.0230999844424475,-0.0781116319967322
140,1400,-0.0352740694287823,0.0196984335376415,-0.0065749243003346,0.0232891005738466,-0.2364785762149422,-0.517339193637071,10.113884189461064,0.0292423735540294,-0.0207495322098235,-0.1330983790231618
141,1410,-0.0295069240056317,0.0298866974737332,-0.0469112048513092,0.0084037160006352,-0.1125521347432614,-0.507802688636315,9.944502184911071,0.0201516375943136,-0.0394055167905908,-0.1670187076294901
142,1420,-0.0300687470748989,0.0235526643834753,-0.0426473244243615,0.0041206173058697,-0.183381642556772,-0.417546470881412,10.168641162255753,0.0283782066378702,-0.0091302718906725,-0.1294906304495231
143,1430,-0.031754110442446,0.0374612570438015,-0.0257797777192527,0.0253710678100947,-0.1941172006570002,-0.4087284837937155,10.39158914403366,-0.0026919098621703,-0.00592131505738,-0.1368049018580082
144,1440,-0.0332700518368182,0.025663564894794,-0.0387969633965804,0.0180147909989361,-0.1812409654069099,-0.5512729061158506,9.801300027756136,0.0303979095669087,-0.0309089375332596,-0.1246454575253377
145,1450,-0.0345538693502729,0.0038846008081659,-0.0371967298795446,0.0148255814328373,-0.3542280002727436,-0.4912816447106236,10.03788527612456,0.0423918404686359,-0.0202714251987832,-0.0946469461054514
146,1460,-0.037176220734869,0.0265601588248546,-0.0256016885445573,-0.0025818589533306,-0.2064274493205263,-0.6696283878123335,9.91660584508302,0.0168319079318096,-0.038150222949168,-0.11533796722178
147,1470,-0.056505639925054,0.0036892489964489,-0.0401984119855187,0.0073940606125658,-0.2596035571640385,-0.5580735045106704,9.763254488678678,-5.386161716710095e-05,-0.0283038583117382,-0.1858395999927181
148,1480,-0.0624766386278292,0.0300474826045843,-0.0305147400423382,-0.0103943767318741,-0.1252228998349688,-0.5131626188319278,10.012721751978416,0.003223558006804,-0.0286051048173994,-0.1462525869778164
149,1490,-0.0378155919268756,0.0125103631820164,-0.0422245251143655,2.415397864309176e-05,-0.183324026822864,-0.6332092565352221,10.043599081656486,0.0229167254888707,-0.0466329065675301,-0.1846801962765606
150,1500,-0.0544752187140837,0.0110279953225251,-0.0509588162404749,-0.0042380669702267,-0.0273023062047268,-0.6298569182800318,9.783086381368028,-0.023088332357326,-0.0428527207490547,-0.1565709571735506
151,1510,-0.0450904789721462,0.0163407053466214,-0.059213629692701,-0.0232476157991355,-0.0348859915236272,-0.5492281586751506,9.781098400061074,0.0395057784859246,-0.0365941747995166,-0.1305233789468001
152,1520,-0.0683362497116681,0.0120242525271256,-0.0402786539313798,-0.0012359069308952,-0.227898769008164,-0.6549380461570741,9.949181796627409,0.0479184463758328,-0.0201278174914471,-0.1546588828002807
153,1530,-0.0562198353773038,0.0010459690166857,-0.0474873421557681,-0.001594171133808,-0.3321918918880865,-0.6717732804933028,9.731920918662071,0.0159964905217078,-0.0192582086008344,-0.1340175942509598
154,1540,-0.0498023582534001,0.0176396507098924,-0.0574980361167328,-0.0046315617807256,-0.2155432390106818,-0.4129706100999017,9.919719980172038,0.0425765368380467,-0.0191989588682615,-0.1529508231749902
155,1550,-0.0534122145813436,0.006362889125587,-0.0528478969466345,0.0018218304402366,-0.1828364562921448,-0.5372721995491567,9.928966892778991,0.030587963116123,-0.0124851230095416,-0.1621435586838573
156,1560,-0.0553411197190872,0.0231622477984876,-0.0176059765421186,0.0029480904150186,-0.2088876563341612,-0.4363193630837549,10.087678662953593,0.0561052278971465,-0.0207641721110478,-0.1894580228593615
157,1570,-0.0511567119263404,0.0115631337382706,-0.0408613013627924,0.0021368874940597,-0.209151942309932,-0.3631041169063437,9.81183048480389,0.010380577355801,-0.0356483231174993,-0.1192521432873632
158,1580,-0.0696436693006791,0.0152378327131756,-0.0459098531194222,-0.0014957016071419,-0.2963372406104994,-0.4288779406035815,10.115619482884988,0.0156629062894568,-0.0382714794066035,-0.1662844912971722
159,1590,-0.0838911985752544,0.0051953785162746,-0.0366301761922307,0.0076507873805387,-0.113920699621492,-0.4330269572231903,9.735632871157824,-0.0350111857709646,-0.0433830192712948,-0.1381532320302745
160,1600,-0.048259482934423,0.0079481498005655,-0.073104509842477,-0.0054415455296816,-0.1479148613047213,-0.611170009573287,9.85090784327144,-0.013734977177348,-0.041367598827156,-0.1506911146266257
161,1610,-0.0678097440277161,0.0010030811885489,-0.0403730316458441,-0.0137222704739946,-0.0781738138008896,-0.6941249932068128,9.911455659074123,0.0167156834135192,-0.0269971474246547,-0.1471559165866302
162,1620,-0.0632019768566631,-0.0033633702838214,-0.0521310022658044,-0.005196313739401,-0.3651817181441739,-0.588724857728453,9.72458751344456,0.0070242845821556,-0.0318525577161836,-0.171630255140418
163,1630,-0.0497631614702092,-0.0087865166214776,-0.0450167992258458,-0.0057548570094318,-0.0487707674982906,-0.4699923485876308,9.605156045681229,0.0115644224696899,-0.0396267548561134,-0.1170561062771251
164,1640,-0.0577376694596883,0.0101853091056883,-0.0515344920628031,-0.0048910948468845,-0.2614901248619308,-0.5730604698614025,9.341426990739048,-0.0169351645911351,-0.0147997643901626,-0.1480967105106328
165,1650,-0.0491647463817164,0.007930523556162,-0.0529577069569603,-0.0172172247065746,-0.2401122786563096,-0.3809024723080315,9.908926060032778,-0.0058453686948324,-0.0348222370989728,-0.1418574462270716
166,1660,-0.0523920019067015,0.0017694496410087,-0.0410907732587538,-0.0085064993640548,-0.2816366487596654,-0.7134804984171627,9.86393924144972,0.0024941404671273,-0.0296170552554823,-0.1277260815500196
167,1670,-0.0481520295631574,0.0105501487321185,-0.04745375620756,-0.0029226558673011,-0.1776447267813995,-0.5884731426225445,10.106869976757196,-0.0212116291078111,-0.0290518627850583,-0.1149745898221129
168,1680,-0.0547411813923785,0.0060696837867636,-0.0351071603739772,0.0138055375054955,-0.0680612612495958,-0.4818350106198081,10.016833492660812,0.0072227389354187,-0.0406538675652595,-0.1686966894356677
169,1690,-0.0359607653320188,0.0282349586541194,-0.0437131824167127,0.0136796427813979,-0.0601135301685596,-0.4659267629851287,9.797216299342924,0.0152952686878561,-0.0360414626336254,-0.1511570175455781
170,1700,-0.0362274406020899,0.0442404170197568,-0.0455354600789401,-0.0098965980320133,-0.1911165968465716,-0.5838983694041834,10.038647489540118,0.0247936457983972,-0.0285920975865054,-0.170637243813415
171,1710,-0.0591586976896376,0.0171248270015322,-0.0563090804849974,0.0110496994104561,-0.3462085631033812,-0.4587769686203918,9.804752011919398,0.021856953515836,-0.0305964929421069,-0.1597418907913066
172,1720,-0.0449248681735164,-0.0001064133898553,-0.0388860071559638,-0.0019297528211229,-0.4469729682946033,-0.5366513088413255,9.831636892111478,0.0133029647846725,-0.0320667649003396,-0.2045010078651598
173,1730,-0.0479993911601627,0.0035694828009696,-0.0502088356197033,0.0139455799193645,-0.2557010186873566,-0.383506946642565,9.6976593327372,0.0297038539695121,-0.0260335740135253,-0.1276254077739041
174,1740,-0.0565951177554608,0.0039411666413849,-0.0376598649196483,0.003627096289473,-0.1508305473386753,-0.5858671900384953,9.749362431822732,-0.026189772130243,-0.0455836158690091,-0.1106351853343223
175,1750,-0.0396230011396826,0.0239246365823768,-0.0289464623968836,0.0086511783602919,-0.179243329698042,-0.4124013289128047,9.924551651282306,-0.0240742993904366,-0.0394402002569299,-0.1238972763549811
176,1760,-0.0182343733732546,0.0355956875474832,-0.0310262629999674,0.0102947930768803,-0.1670137476001441,-0.5419047686662549,9.424824799287965,-0.0023106836459828,-0.0417199649712859,-0.1186740253484443
177,1770,-0.0309813756151034,0.0345324668970833,-0.0413576301412467,0.025095199437799,-0.2273804999910132,-0.5104395876216817,9.792111845544722,-0.0604608571019459,-0.0377734700827932,-0.1425893845264018
178,1780,-0.0451341329419432,0.0132134826994779,-0.0432802095839937,0.0137261895968114,-0.2107650165848333,-0.5438122036870641,9.945090923343509,-0.0020242883127566,-0.0378742046949111,-0.2290480843801737
179,1790,-0.0330766242721945,0.0167875713677124,-0.0469578704791713,0.0055557899462364,-0.3829252140086052,-0.5671423720147581,9.466671310868316,-0.0379424609616755,-0.0232917649693044,-0.1769540117594583
180,1800,-0.0496275757151026,0.0105070333765748,-0.0311243085630633,0.0106125037452056,-0.2544411780771101,-0.5994256694506694,9.779561445980056,-0.0236228534040411,-0.0372837501471643,-0.1274214209227114
181,1810,-0.0322598910205371,0.0245197073954465,-0.0338265187257697,0.0286688817482014,-0.3209098340589201,-0.7030660421626608,9.94778981278376,-0.013242215451901,-0.0410668993445564,-0.1888831664180348
182,1820,-0.0257844513924565,0.0105065427392385,-0.0289344749201301,0.0308499768546881,-0.1190653347951602,-0.5762493546912898,10.099383823975405,0.0143896650793672,-0.0507276965472251,-0.1634283249480048
183,1830,-0.0208549478858229,0.0203455164931025,-0.0234291792900533,0.0083408940905466,-0.3584877412406486,-0.7057087514159445,9.783247225054552,-0.0298977275065026,-0.02979896608633,-0.0906857926573541
184,1840,-0.0268827247110246,0.0301853311779525,-0.0330487509543556,0.0418262838265921,-0.1863655935003039,-0.5212038668564103,9.726554846506495,-0.0479726932737604,-0.0511153476759337,-0.1810266185671689
185,1850,-0.0432649852757456,0.0148048628504419,-0.0327783399511543,0.0227515891163454,-0.0972664905301982,-0.5803056540094252,10.119419381051598,-0.0138653234376937,-0.0381454640103243,-0.1748706580494915
186,1860,-0.0261334414232996,-0.0048026758798394,-0.0311674149150371,-0.0037920724941194,-0.0524592497952446,-0.5055375972478808,9.889897223241414,-0.0530420399003901,-0.0401765728468069,-0.2042849463616217
187,1870,-0.0267646387649124,0.0337465678794404,-0.0232258217255504,0.0329744862943489,-0.1447260372198511,-0.5028492402846549,9.5556227443583,-0.0038654986862657,-0.0395043819431399,-0.1457718512453291
188,1880,-0.0284482071802476,0.0475047106556413,-0.029845975527978,0.0361641187960903,-0.1415875277263996,-0.3026042443799245,9.978344578627793,-0.0155076260336967,-0.0311791132269778,-0.1132160609041483
189,1890,-0.0269820901849392,0.0096723942299373,-0.0281098098724459,0.0158639839465497,-0.254398489282563,-0.6816880170677081,9.555146430105824,-0.0062424594269621,-0.0612688035967774,-0.1296506208291404
190,1900,-0.0485547737975467,0.0227530241415083,-0.0392492027655344,-0.0048964227937841,-0.2370971737184986,-0.6090375852976773,9.742917147034367,-0.0468711036820229,-0.048359616675647,-0.1419277489701724
191,1910,-0.0224423930505932,0.011469603719753,-0.0176909843191688,0.0187749699305704,-0.2195511452379631,-0.5245144272132345,9.176725607710983,0.0126043921558844,-0.0491022989610025,-0.10097656991825
192,1920,-0.0457202327890096,0.0054878284062209,-0.0422942138870767,-0.0024235827590512,-0.2171397262007332,-0.4014225378534168,9.65566210922426,-0.0150337222731668,-0.0609284205147444,-0.1620089010461269
193,1930,-0.046633857838179,0.0235220064169776,-0.0381982626746284,0.0203717016004936,-0.0247540749758604,-0.5110197419080467,9.58474807147572,-0.0185193121575782,-0.0295042067867876,-0.1747925722899251
194,1940,-0.030863444809032,0.007608056911554,-0.0392846606301805,0.0130690080613079,-0.2692930520372906,-0.4956997485040952,9.735037654435342,-0.0578959537027078,-0.0420214719301654,-0.154398276310503
195,1950,-0.0250479739146602,0.0065737253337999,-0.0373078803275263,0.013734310930109,-0.1092905494208057,-0.4373203335108547,9.64330063286407,-0.0160117950076533,-0.0515906670504014,-0.1457318505461959
196,1960,-0.0574271278978564,0.0091792712446752,-0.0435550490216192,0.0152167602465236,-0.3260315484339803,-0.3758319132902232,9.747869151783412,-0.0548898533832381,-0.033589207763767,-0.1606034115521694
197,1970,-0.0451328540327912,0.0233790687582808,-0.0532442662433904,-0.005148777406025,-0.4993894750367277,-0.5045205934777555,9.40211947495498,-0.036379447273445,-0.0528931916245181,-0.1581348660315714
198,1980,-0.055073650335702,0.0248641173565604,-0.0573948769968216,0.0095640437493095,-0.2606867915352436,-0.4725408543664262,9.174921095717156,-0.0220890541398187,-0.0235367037476902,-0.1565052126442252
199,1990,-0.0550995955412547,0.0120516544477795,-0.0312709630601092,0.0215053087504063,-0.1907905374638337,-0.6585342389736217,9.88942904605796,-0.004656002326832,-0.0328147677222012,-0.1266224255429866
200,2000,-0.05091743497521,0.0079455184905654,-0.0390549515071282,-1.024192418567875e-05,-0.2610811680919169,-0.5506165189456531,9.748970132124876,-0.0159473637774045,-0.0307560208416575,-0.1177508681043198
201,2010,-0.0579644023519433,0.0174399162767928,-0.0500025470258716,0.0097681136524272,-0.353877568758101,-0.678539779935363,9.504561858966674,-0.0309945149896364,-0.0633035267275867,-0.2194236547595421
202,2020,-0.0549583091050064,0.0367696236578182,-0.0392907061658298,0.0093196933809112,-0.0877230545028561,-0.5404125283333219,9.753186333717936,-0.0192380916866048,-0.060063153120084,-0.1643444733166595
203,2030,-0.056969828143904,0.006476083069146,-0.0465650931413233,-0.0002757751440125,-0.309936743195772,-0.5022642367769861,9.156709600152311,-0.0443643414225441,-0.0474178938410641,-0.1780392888809761
204,2040,-0.0477721244849077,0.0167092640425573,-0.0610297408293728,0.0078215932991246,-0.1021558071128864,-0.5102937244189536,9.423296477028172,-0.0492889023041439,-0.0495506585825096,-0.1745886806687522
205,2050,-0.0441244785640658,-0.004954617570477,-0.0410449899436191,-0.0035281613459383,-0.1765520854375232,-0.4813007987891634,9.86109042197562,-0.0286316342156937,-0.0500598652808562,-0.1673754904307239
206,2060,-0.0409162394490463,0.0313529383245263,-0.0492425866178762,0.0147634744520494,-0.3013936501622506,-0.5441410823502582,9.475923476753,-0.0412984717707789,-0.0332317177786698,-0.1823702111484044
207,2070,-0.0537493489611169,0.0067622942618674,-0.0409822175374949,-0.0044825009677223,-0.1522129166834224,-0.6314938325100031,9.65304077937879,-0.0622233215952023,-0.0323496754917531,-0.2236303364877371
208,2080,-0.057867601819563,0.0018527691547524,-0.045220393562149,0.0215421253950801,-0.3580716564795188,-0.5474010064121038,9.62318727025556,-0.0669768993238985,-0.0350003616128713,-0.1207040278072183
209,2090,-0.0420616420452685,0.0265034927223316,-0.0352737883223071,0.0313416733524495,-0.2844703266245255,-0.4301583247311084,9.330659195488236,-0.0595931346238453,-0.0381859029718686,-0.1703782772983978
210,2100,-0.0449222163676653,0.020034468402317,-0.0456746845406948,0.0142509215981518,-0.3069995045100607,-0.5633191043101055,9.439926317240522,-0.0480060964280184,-0.0458735281425925,-0.1084290335686685
211,2110,-0.057661979621263,-0.0089919641079979,-0.037759115155803,0.0111268314083344,-0.2504527560847993,-0.6529408818284166,9.694134300170411,-0.0355376340623627,-0.0532490185999835,-0.097039812690793
212,2120,-0.0386210328936543,0.0135500705731017,-0.047558719487497,0.0296067820479277,-0.1908252970851384,-0.5156180352500656,9.5680659579051,-0.0745595398009482,-0.0410287687616604,-0.1229966898880504
213,2130,-0.0393819571542833,0.02030202492517,-0.0191697045223715,8.97461828360882e-05,-0.3401567306448941,-0.3599382797375481,9.408938694856054,-0.0724995133117498,-0.0333687269726634,-0.0988392686212175
214,2140,-0.0425846659150399,0.0396420447255622,-0.0112333953998576,0.0177417315658394,-0.274292748814447,-0.595142292498198,9.635231660015991,-0.0546671846805244,-0.0200891428912302,-0.2023292671680481
215,2150,-0.0514531089638761,0.0295139543768757,-0.0176456722409789,0.0186449355491249,-0.3522659542116521,-0.4510532620120995,9.52571943989934,-0.0705867871651801,-0.0416182232126244,-0.1523875365668057
216,2160,-0.0295655695085391,0.0184633146545577,-0.0554833380143804,0.0242108760242933,-0.2743870536701349,-0.5127223727375204,9.280434180448118,-0.0583217682933877,-0.0509205889284794,-0.1292403339977492
217,2170,-0.0366679911428818,0.0145186703679138,-0.0344416876360999,0.0090349427580476,-0.3544562870907768,-0.4049438512237023,9.739160904683796,-0.0631959506423991,-0.0472582993785407,-0.1392132134898874
218,2180,-0.0437557128788006,0.0447052969160736,-0.0240137038593489,0.0139089897290268,-0.1508818548644775,-0.5125707906561923,9.38157143921675,-0.0644896860391418,-0.0467855070472363,-0.1494111396948584
219,2190,-0.018340088066082,-0.0013292105232573,-0.0204433310935977,0.0158948731634344,-0.2206910597454038,-0.507196361658466,9.673471759846151,-0.0468242007227248,-0.0518331693059551,-0.1429508250565226
220,2200,-0.0395511963911852,0.0123101159202852,-0.0072306130183165,0.0126055356766899,-0.2374410916256818,-0.4452492474118624,8.955573120853117,-0.0520391540876914,-0.0496815489602696,-0.099471767133494
221,2210,-0.0238362236727339,0.0333284357931882,-0.0256016850126924,0.022851737836847,-0.2750604626361337,-0.3516439730353738,9.587502781746664,-0.0939139690156386,-0.0507175366748126,-0.160340153771886
222,2220,-0.0121055384047509,0.0302711862554417,-0.0260408033898522,0.0359718763696913,-0.3229786841376547,-0.6081495028063568,9.469869542480884,-0.0253422779908324,-0.046716182656533,-0.0657351843985292
223,2230,-0.0182251741600519,0.016065462903408,-0.0179679457750921,0.0170450086980093,-0.2596095605430723,-0.6108497260062533,9.35932965431365,-0.0464209168680329,-0.0426979704587892,-0.1240121694806349
224,2240,-0.0239438468641069,0.0191724502808281,0.008526018846373,0.0340156430372645,-0.4543495993613095,-0.398944840973246,9.738820277496233,-0.0567592710415966,-0.0539109096138301,-0.1262068740503763
225,2250,-0.033425130137172,0.0371380270763032,-0.0196250272745073,0.0138814511600326,-0.2768421262359565,-0.4270047754355918,9.352362109390787,-0.0283846198077977,-0.0427635063263836,-0.1045733911311933
226,2260,-0.0147893046317222,0.0399705953159786,-0.0091962321832553,0.0450566445029732,-0.0533584835904852,-0.5224292120185505,9.574521327382104,-0.0719598895179669,-0.059543810373399,-0.1383475046834497
227,2270,-0.0112241485485835,0.0413497096254324,-0.0172903264299634,0.0418828026369551,-0.3272439700076142,-0.5480109158501894,9.566167677595574,-0.0465766330234062,-0.0389033433814969,-0.1633327005414062
228,2280,-0.0276818314082932,0.0504687745572457,-0.0327128407500809,0.0367243322982835,-0.286194665313821,-0.2247289539482129,9.788001490479244,-0.0864015060835134,-0.036979527328285,-0.1606409839509711
229,2290,-0.0043460908453471,0.0334166459398127,0.0077476612754367,0.0365964160187136,-0.2070300331152075,-0.5324525473320447,9.450629456568722,-0.0315359099663956,-0.0484841907718064,-0.1391155141994351
230,2300,-0.0112710360120431,0.0436353191866571,-0.0156946288611235,0.0126109061584123,-0.496741980546828,-0.3592211160862644,9.51802073582959,-0.0767842812936755,-0.0408464423807547,-0.1627718346984651
231,2310,-0.0068996828533194,0.0598164763520493,-0.0174862809655809,0.0335397195381609,-0.3630388308992669,-0.4392399832797354,9.424250750105228,-0.0626611993879238,-0.0616301386763223,-0.1456470691981621
232,2320,0.0097129457294315,0.0613125641716858,-0.0072528525551811,0.0541512364483295,-0.4187179964782846,-0.3469889680951841,9.57687598264955,-0.0555403825068263,-0.0582501368602526,-0.1515635577305614
233,2330,0.0028385839318708,0.0456910832773254,-0.0079572794294126,0.0326939061709704,-0.2461253133600239,-0.333105406456877,9.440922279157435,-0.107081952732171,-0.0572177745512676,-0.1922026958653046
234,2340,4.691546922951095e-05,0.0365089944023312,-0.0202578759260636,0.0210474876246037,-0.3074580669140067,-0.4908949258674968,9.427773908148708,-0.0858474950014264,-0.0584298832196956,-0.1464297705265871
235,2350,-0.0195646335348593,0.0469963671723955,0.0039349226869742,0.0357697914705277,-0.4032550502539385,-0.288984834568652,9.174912557995455,-0.0656679729314792,-0.0494292696802963,-0.1289053361183378
236,2360,-0.0411973489767612,0.0468081959208901,-0.0131305199426393,0.018743314020495,-0.2820723887446852,-0.5293822141205856,9.49581399845519,-0.056777374157112,-0.0568659000608504,-0.2095780530050695
237,2370,-0.0105795768260313,0.0535601880371747,-0.0081126384135288,0.0403042852825616,-0.4561208018091592,-0.590118910378186,9.475908630350736,-0.064843102144126,-0.0562402158952809,-0.1113575505310502
238,2380,0.0118778623662178,0.0390596403563867,-0.0066974523927052,0.0449059328837173,-0.2822006112442335,-0.5747525110489998,9.188143878082156,-0.0674730653788289,-0.0560057472361698,-0.1918122587911104
239,2390,0.0136346580291017,0.037101655606993,-0.0185874825300738,0.0306998712309559,-0.3034639089340894,-0.558424930678384,9.458591068627769,-0.0823697533883959,-0.0631434607716791,-0.1568480805479417
240,2400,-0.0031778942003342,0.0324053974504316,-0.0052358948224993,0.0442418829773458,-0.2331749129589546,-0.4752719704858375,9.307490246743145,-0.0883615699861297,-0.0471517556514002,-0.1444341025646187
241,2410,-0.0166697012688117,0.0352923554644375,-0.0233551098944755,0.0399260579429452,-0.2454631015844255,-0.4909046899987572,9.386443827386838,-0.0530757489429169,-0.0595999449549611,-0.1245598684468658
242,2420,-0.0027160663395351,0.0442673061241226,-0.005295669254614,0.0380843871391036,-0.5188574847667807,-0.3276671895438108,9.197582090649046,-0.0608387614709393,-0.0473452740895668,-0.1412549248385218
243,2430,-0.0115554097835595,0.0394049959734249,-0.0062926368398661,0.0373942836917208,-0.2704015526063555,-0.3337860089307975,9.228984059335502,-0.0744431012270173,-0.061390427412503,-0.1206578227394135
244,2440,0.0063165806436906,0.0354021252176161,-0.0088622198469801,0.0531504169359672,-0.1724492124136582,-0.4854523796237526,9.72541891303182,-0.0608943836726684,-0.0619601350798076,-0.1934907494340636
245,2450,-0.0030749991052979,0.0359225972365508,-0.0053859174771418,0.0328041816912739,-0.1988383904631052,-0.6084369030486132,9.580639913228127,-0.1019514011829697,-0.044972273379954,-0.0907780027152604
246,2460,-0.0155593591338377,0.0534034163532496,-3.433753421215775e-05,0.0468546860185109,-0.3886064524695914,-0.5890660965531755,9.006043223834343,-0.0499205454329397,-0.0468291719052844,-0.1945299502680371
247,2470,0.0063655646193179,0.0369778836108112,-0.013163288149972,0.0324711118590198,-0.2212721819856752,-0.3351833425519647,9.437092973499466,-0.1038639516823577,-0.0454798759906004,-0.1245608998448829
248,2480,-0.0129162380979009,0.0267400209183961,-0.0138574337716728,0.0315006627639473,-0.3203488010834676,-0.2812128036086352,9.40586143821217,-0.0463697486899255,-0.0570358598265486,-0.115752625622009
249,2490,-0.0147198173956424,0.0318530484070948,-0.0188953145502106,0.0310015962064841,-0.2854044748140527,-0.6765665902772339,9.546788805545862,-0.0697082912398334,-0.0591379984986344,-0.1266736348983792
250,2500,-0.0119497425914743,0.0512159082074476,4.2367697503844365e-05,0.0298909687998488,-0.449390863302511,-0.2926312730776793,9.406662306362124,-0.134649825749782,-0.06363340849632,-0.1254046494388892
251,2510,-0.0242743383561521,0.0581562566352396,-0.0052669414896265,0.0364563970854277,-0.2462434874496131,-0.4967581348175284,9.610033875029544,-0.0764184841226277,-0.063672255920049,-0.1170302904188588
252,2520,-0.0318738870737274,0.0365281284987868,-0.0141818720424856,0.0227158415596713,-0.3213154206447102,-0.5657415382453912,9.275196772857784,-0.0700348230856198,-0.0326310814365071,-0.1684164637969692
253,2530,-0.0194514157066866,0.027051603411191,-0.0198568631398126,0.0160174248099339,-0.3169071924364998,-0.3302779057656975,9.163796395808362,-0.104684091398208,-0.0455698941281081,-0.145592814478425
254,2540,-0.0225310017591666,0.023251400884196,-0.0123465716573297,0.0336908768349415,-0.3992994435126915,-0.431059989085552,9.453593320357522,-0.1087820788369313,-0.0508818500035251,-0.2046492544930908
255,2550,0.0027137386706212,0.0352961821075236,-0.0112660108597034,0.0223975506465033,-0.3298374027142265,-0.4775062743729944,9.391884654039025,-0.0918574362195838,-0.0497797915626042,-0.1005357515198641
256,2560,-0.0036146219101552,0.0319432340652118,-0.0099300701407951,0.0465737150327238,-0.0971041756951662,-0.2389399835455827,9.411352149097407,-0.0894758874208344,-0.0624887552626728,-0.1314350193203955
257,2570,-0.0006009025259491,0.0322959993195988,-0.0072876080831589,0.0329106823913241,-0.2353585056896429,-0.4991551311407413,9.18476535041152,-0.1106842290084149,-0.0557096046381653,-0.1315642609166971
258,2580,-0.0102044192364896,0.0542025233764913,5.029760800225047e-05,0.0353623487220594,-0.2049834095809969,-0.4799348064486414,9.471424538564357,-0.074783498930263,-0.0564074557887186,-0.0537306847246346
259,2590,-0.014026136761435,0.0213309162368973,-0.0108941266893383,0.0503929483945286,-0.3148753037523915,-0.4091783979850216,9.194093350913429,-0.0608675680532727,-0.051848412557531,-0.1449421841423614
260,2600,0.003585356474998,0.0398232790247389,-0.0027971351284597,0.0495187187732299,-0.3687519848587114,-0.4796499966540167,9.230328549073178,-0.0911971255624246,-0.0759403510392614,-0.093064063754025
261,2610,-0.0078296139041605,0.0359291668415147,-0.0036545938413906,0.0257541809799729,-0.3065035870380905,-0.4782126370414629,9.420016444400332,-0.1063942005233283,-0.0435588317585779,-0.0936143238994682
262,2620,-0.009329139049805,0.0399893126275999,-0.0212678293398436,0.013182622851999,-0.3878554644252142,-0.3593181079551947,9.262584724920751,-0.0909313697997875,-0.0277806962136683,-0.1270335725650058
263,2630,-0.0025575882562815,0.0511462723025997,-0.0125417476170041,0.0405050811351798,-0.3066364674951412,-0.2896379487936872,9.090426425115348,-0.102211700842775,-0.0568153669139726,-0.1320082821698516
264,2640,-0.0162133281918417,0.041632415445654,0.0005271491681295,0.0420706709472843,-0.1800802293792016,-0.3648221382623317,9.65515475983734,-0.120683164507459,-0.0469362589877472,-0.1202740215979327
265,2650,-0.0136157114911236,0.043558942534512,-0.0273442661889836,0.0402751639503984,-0.3712447946048208,-0.3900190497603059,9.313660218560187,-0.0785204931508997,-0.0533437400576477,-0.1039352217352049
266,2660,-0.0202341667152718,0.0335160922815009,-0.0384035401532798,0.0274350974988358,-0.4352614861635604,-0.4860282841668008,9.06610136064114,-0.1053752634627237,-0.0646520071795426,-0.1314822917125494
267,2670,0.0026964887163118,0.0532632839609205,-0.0006817314727192,0.038637628138586,-0.29569702393521,-0.3933061395650821,9.281721550280732,-0.1047232518430696,-0.0531014934504524,-0.1522096805929966
268,2680,-0.01167999951158,0.0168874770189235,-0.0012863449839313,0.0195810754585545,-0.1216476136409632,-0.3118085375960645,9.308313155776858,-0.1059971129679199,-0.0570433728049306,-0.112900116302355
269,2690,-0.0262280229956207,0.0240823195573773,0.0124472043058023,0.0270819311016339,-0.3873273787015839,-0.5466473424509024,9.511173763523807,-0.0933836942309648,-0.063922956875863,-0.0696059571967581
270,2700,-0.0196742668701029,0.0349806762366305,0.0092738408462362,0.054516151913734,-0.3134849369369977,-0.5293363869665231,9.150442796805358,-0.1070814202935829,-0.0397887006819948,-0.1811102698206274
271,2710,-0.0033069481740213,0.0399019687206344,-0.0119774891806008,0.0344482403895956,-0.4232735417445952,-0.4192462129720762,9.455098334526063,-0.0719177863992516,-0.0522936465403687,-0.153623220637591
272,2720,-0.0062939687134878,0.0454665878943234,0.0170188418220015,0.0509487853040309,-0.2395717699191854,-0.2911247450902757,9.268372260752315,-0.1081912057144788,-0.0577832363094606,-0.1325833070517304
273,2730,0.0102487976991739,0.0703101124320909,0.0192181331196928,0.0435624140527519,-0.200153175894324,-0.4987087836588539,9.290777295724071,-0.1208881514537861,-0.042785256956273,-0.1547095223607091
274,2740,-0.0104423673655076,0.0279142826200353,0.000728854110764,0.0456652608941176,-0.2918045506171237,-0.5262440765815652,9.255377977899863,-0.1074988482112194,-0.0463016899689286,-0.0684113283153206
275,2750,-0.0035418069377035,0.0529863771253107,0.0133233180069195,0.0518073527006751,-0.4116376095924127,-0.3413524370254762,9.192076871244964,-0.1065571950016971,-0.0582847908332193,-0.0970306333420314
276,2760,0.0093167646046739,0.0315441704589394,0.0103584756026915,0.0353123794140614,-0.0448370671568381,-0.3996609721247335,9.19763240644956,-0.1071507025756421,-0.0559613975867007,-0.1313179282242156
277,2770,0.0055132921564978,0.0567480540985387,-0.014242278777002,0.04414815291088,-0.5407017111497454,-0.3508093377341785,9.092786032006762,-0.0745203131160042,-0.0639289380688798,-0.1118967724161663
278,2780,0.0202030118887691,0.0521386591452838,0.0082578526607969,0.0420270066852591,-0.3164141473113053,-0.2466762601301029,9.377736295642125,-0.0953568596659198,-0.0398971587123758,-0.1147352346209407
279,2790,0.0023552736555969,0.0277839985693782,0.0210176811613849,0.031193072033532,-0.2898368171575574,-0.5102456565404822,9.447295082769596,-0.0995868016079212,-0.0575228175728356,-0.1456225055813396
280,2800,0.0042561859036774,0.0602065716855239,0.0137049472031712,0.0646221571773924,-0.3936310184385939,-0.5163336741724853,9.313126346821182,-0.0831490358313819,-0.0360726218901443,-0.0952530659423931
281,2810,0.0119840322777292,0.0594526356885933,0.025194341811383,0.0514229970591298,-0.2690032434843987,-0.4711018309947891,9.326854751064872,-0.0750252974976897,-0.0401356402453192,-0.1041369876047707
282,2820,-0.0002889414442396,0.062087814063656,0.0036031240620494,0.038543477581037,-0.3572201544285445,-0.5849505467241954,9.428444715910937,-0.1199786602600714,-0.0459221956278677,-0.0998189078572926
283,2830,-0.003562837400418,0.0438749154566635,0.0004289192234941,0.0278199998379219,-0.19223569292898,-0.3360204023829654,9.42793876065169,-0.1189409461375412,-0.039341177148208,-0.1533228712420088
284,2840,-0.0023677915958728,0.0568493947956301,0.0020959892817017,0.0308257268789629,-0.0981011657483041,-0.4547751843062986,9.43648158334318,-0.0983718546321751,-0.0557460407893329,-0.057324400731329
285,2850,0.0070032735759534,0.0745571248472702,0.0276709375331561,0.0504969478111042,-0.2259766895729453,-0.5688570877550234,9.415568740682936,-0.0826317726417329,-0.0438587737424057,-0.0955105068047116
286,2860,0.0029434663976159,0.058719460899112,-0.0022614403937105,0.0543821889926642,-0.4232040967434299,-0.3199154403864821,9.393708591994574,-0.0541780152442088,-0.0469845092644397,-0.1415049187179403
287,2870,-0.0033394165148192,0.0270700342993705,0.0106517692329658,0.0246911257184231,-0.3154102494186569,-0.5144685558347292,9.10829877690652,-0.1194471391124045,-0.0453836866606951,-0.0969129304653995
288,2880,0.007852221837183,0.0525019460044021,0.0200744831604467,0.047406252546415,-0.2861905200780441,-0.6026058437328492,9.382694600694442,-0.1238278689103465,-0.0530387510298338,-0.0836843861318481
289,2890,0.0118500709745614,0.0595482049300278,0.0190451480578131,0.0436469313260129,-0.3057947326294512,-0.3800229080491974,9.275394841767538,-0.0601276645952182,-0.033393431668438,-0.1276884880253808
290,2900,0.0041777010296084,0.0416989889373278,0.0020610885980023,0.055848840114587,-0.3000943677256898,-0.2186497257547908,9.718272855866212,-0.1014377692321842,-0.0525077052093753,-0.1224422521218342
291,2910,0.0018416467207348,0.0448680380828526,0.0131890105271184,0.0395064076736026,-0.2394469627173584,-0.2207213325623941,9.291695485453891,-0.0805296620090796,-0.0417780268008284,-0.0869601608968231
292,2920,-0.0015769869000966,0.0488643894914681,0.0152490337482524,0.0396502987536076,-0.2981266369650781,-0.4125032659344161,9.38179944831091,-0.1020722853987805,-0.042718290352315,-0.0861376023052797
293,2930,0.0025581124571603,0.0341918970391362,-0.0081600153799987,0.045040127316129,-0.1813005016559426,-0.3809068594872393,9.00709596401747,-0.0993871589969742,-0.0464875880535904,-0.1637452312588191
294,2940,0.0008487124255017,0.0497246350973697,-0.0088178921714335,0.0439932127578854,-0.1941230483518338,-0.3673778783042455,9.184417068000098,-0.0879296437423242,-0.0375001709511958,-0.0903898706661434
295,2950,-0.0345197301624017,0.0479309669264144,0.0213002855883151,0.0365492791541283,-0.2330423493780258,-0.3623601235491546,9.283609966085058,-0.0947935792673687,-0.0457412499632894,-0.1132652768115755
296,2960,-0.0042140595143973,0.0246582859191852,0.0174255915820671,0.0396630574177343,-0.2262341017040731,-0.2835904368291425,9.314437222428042,-0.1223286564869751,-0.0646816764744253,-0.0759105236364753
297,2970,-0.0057240708790748,0.0228776902800086,-0.0042021791556598,0.0305809754920007,-0.2986781873597096,-0.3519399873061182,9.298405493735949,-0.0978070220386838,-0.0591155413908003,-0.0951379362858381
298,2980,0.0016656262474606,0.035208123557337,-0.0044525580526871,0.0319984361013749,-0.413862955584349,-0.4645717258241225,8.934476127057325,-0.0815647047747726,-0.0520179784036484,-0.1230857563780283
299,2990,-0.015091289709588,0.0271199542756056,-0.0324671118937713,0.0160690829524872,-0.4194684399031392,-0.4347532165726071,9.430116332782845,-0.1126961632368751,-0.045919096246101,-0.0592280703654409
300,3000,-0.0125761306659854,0.0237234847968639,-0.0062571996239979,0.0174712148561686,-0.3550274888386565,-0.3555624189340721,9.464258468547108,-0.0967015352301138,-0.0393341397263158,-0.1123270789802825
301,3010,-0.0066383630007358,0.0298487123910707,-0.0098519594768987,0.0418974415680898,-0.354716647276053,-0.1864839395211683,9.28470846115477,-0.1179814200911326,-0.056375027976219,-0.1124277895589578
302,3020,-0.0319379559803542,0.0107615669627678,-0.0131248193535045,0.0302550921411753,-0.1976672783565886,-0.2972352269048778,9.582196847157256,-0.0857864655294694,-0.0635890346041101,-0.0452418255569169
303,3030,-0.0016796847283351,0.0025033255397542,-0.015853997242691,0.0064299018531337,-0.1160287187009508,-0.2458864773110577,9.51133743803272,-0.1092279203973192,-0.041868040235136,-0.1284946757689105
304,3040,-0.0397726924330204,0.0249330788633583,-0.0293536193042774,0.0085900760786334,-0.3403870599837034,-0.2799662933652816,9.112872587262288,-0.0891535320857841,-0.0316065867935348,-0.0795187442768348
305,3050,-0.0134409373431323,0.0252914066184774,-0.0131768639497099,0.0346806186897281,-0.1400549942530208,-0.3616884263753951,9.719221247550331,-0.0464674401271302,-0.0318686045340175,-0.09055113704244
306,3060,-0.0399669025385943,0.0117182285535617,-0.0143412403147935,0.0175193030702423,-0.2517227036754317,-0.2238975842607128,9.03112361193525,-0.112168669412307,-0.0411892933921711,-0.1045880070058359
307,3070,-0.0295317138073647,0.0437791978270547,-0.0091146521799818,0.0289762254848417,-0.2685179228569968,-0.3976304569436298,9.408574042770969,-0.1236956672394127,-0.0456989603146654,-0.1247878901880317
308,3080,-0.0258214188774243,0.0161806232564607,-0.0113348165678923,0.0131961474680183,-0.0779253164609204,-0.3365599438609652,9.241575106228836,-0.1096030097796945,-0.0451468914817511,-0.1226788892502397
309,3090,-0.0172416238782572,0.0243382240787114,-0.0069155463625928,-0.0092442466144865,-0.1898613641745881,-0.3136947797798869,9.31290158624927,-0.083960267682577,-0.0531201197652441,-0.0741014640597989
310,3100,-0.0350057393750926,0.0122893474305463,-0.0293374998858166,-0.0098914131945798,-0.1655923635098726,-0.3775206870680933,9.47122714131115,-0.1064169635007308,-0.0319288449954064,-0.1022843788317639
311,3110,-0.0243808946402457,0.0315031330475108,-0.0087400975048454,0.0259297714957189,-0.0601267741736188,-0.4037003039375042,9.327747691346197,-0.0996108250494156,-0.0248050255147864,-0.0842851581681605
312,3120,-0.0241877154454753,-0.003784195853869,0.0004596025563664,0.017308023574997,-0.3082591025964361,-0.2986083900078667,9.300406375859623,-0.1018005104754,-0.0493160134934071,-0.1233679950242074
313,3130,-0.0274536819244327,0.0197757596913729,-0.0224638521593278,0.015962478791856,-0.2435574263078011,-0.3958596566218295,9.395249577257838,-0.0958532686396469,-0.0552420594368813,-0.118147330780122
314,3140,-0.0155586018799913,0.0260214721489891,-0.0330370768187088,0.006248178950486,-0.3729825651599727,-0.2887945086695925,9.436145456569792,-0.0759844818292032,-0.0310342952213328,-0.0597783074599298
315,3150,-0.0248413051448351,0.0053371621014523,-0.0134200928621178,-0.0236974918204159,-0.3109809495077931,-0.2918147887175658,9.3057337208209,-0.0798605274688831,-0.0463610333946115,-0.1028727197918867
316,3160,-0.0214794270316356,0.0015857130520453,-0.0243934051070361,0.0155106148728615,-0.0821228019095516,-0.3139987884766661,9.694574058687625,-0.0590557844920076,-0.0223416485033009,-0.1024902872645542
317,3170,-0.0045017169919322,0.0270027984724983,-0.0065972079303156,0.0001016699362027,-0.2522430942805768,-0.2409536016629283,9.04714026607798,-0.0874479029614955,-0.0647404500399969,-0.1117930160549718
318,3180,-0.0324907198343178,-0.0120405643529713,-0.0287286814490766,0.0080380899274716,-0.3397616340567242,-0.2082383068292447,9.273422761179212,-0.0874497873827529,-0.0523973452875047,-0.0765417265319275
319,3190,0.0024869103882424,0.0250851160628721,-0.0466353668899336,0.0241115753488164,-0.1536121473973823,-0.3216994298867464,9.109211941319078,-0.0900325418206116,-0.0539935753005746,-0.0734248929334388
320,3200,-0.0118053165783754,0.0198167790105269,-0.0434220186072683,0.0021692358737179,-0.2922612908255119,-0.3781894658985134,9.442265725598848,-0.1379834482367646,-0.0193490284634694,-0.0642903801503535
321,3210,-0.014769748814805,0.0344237070346208,-0.022090209632646,0.0143630079250854,-0.2355257828928015,-0.4245570851720321,9.821093441188449,-0.1131177172162168,-0.0405943961917207,-0.0608308447804253
322,3220,-0.0185397802465075,0.009563730796293,-0.020716095883426,0.023125068846032,-0.2798511860863387,-0.3714001566078988,9.291327435984662,-0.0700638155827317,-0.0558011298703696,-0.068942614387011
323,3230,-0.0176069382647626,0.0227725715970631,-0.0054241568871755,0.0076095334376722,-0.2109400255677311,-0.3522509492699553,9.464284510990684,-0.0889145864099404,-0.0343061670035858,-0.0697765287998808
324,3240,-0.0137490102128707,0.0259725298674952,-0.015601751037957,0.0291691319943793,-0.1408185056254705,-0.3795149319150531,9.261562128505188,-0.0722081132457827,-0.0404434565714882,-0.0705691814917442
325,3250,-0.0162544954344617,-0.0095663767757161,-0.005844661770385,0.0217386684398182,-0.3379440520181433,-0.4498607288827672,9.6853391480884,-0.091431605509967,-0.0553557336265879,-0.0869241738857986
326,3260,-0.0083773507957518,0.0314143700772105,0.0195723843875909,0.0061949289347908,-0.1823924886139867,-0.205805781804982,9.44538950983848,-0.0651708441964128,-0.0486730241868898,-0.089228642235872
327,3270,-0.0254686378439296,0.0401224234760743,-0.0096318332717118,0.01790264855013,-0.2747777822360706,-0.381735031965424,9.250967049978744,-0.0730109593478928,-0.0536282808478808,-0.1213398673537031
328,3280,-0.0105127525886856,0.0371312768644957,-0.0026425102858976,0.0160051768536351,-0.1655867536623017,-0.2190132406863691,9.446712244431204,-0.0960989986431853,-0.0225619197552761,-0.1160207097635614
329,3290,0.0017459595291103,0.0153295790677159,-0.0209176511951835,0.023836987917907,-0.0749836802223535,-0.2680322257856962,9.132277650897198,-0.1005609332465964,-0.038350586970633,-0.1165314782282248
330,3300,-0.0166815109858264,0.0151197139013069,-0.0137152168844823,0.028647702951363,-0.1736599834599669,-0.2264581321804407,9.395829196511112,-0.1080534954942,-0.0514778318306145,-0.0885372640183187
331,3310,-0.0079677577443385,0.0235234702143038,-0.0080319702519205,0.0155200001700606,-0.4381247016083112,-0.3408438180495038,9.692898103981651,-0.0932018500607013,-0.037087083477683,-0.0533350399292563
332,3320,-0.0229441930113372,0.0085786211233797,-0.0095465542450778,0.0190747536331094,-0.332992585389769,-0.2526894476356117,9.194833572293994,-0.0968009323566081,-0.0436540451163934,-0.0831555372509048
333,3330,-0.0103890446580104,0.0105251923495702,0.0018808151076966,0.0289092969711937,-0.2445763123959718,-0.3288243661297807,9.078236470345573,-0.1083658328370223,-0.0413011698401237,-0.069945838214462
334,3340,-0.0089595628414215,0.0287827908098594,0.0047252592620303,0.0167409505892116,-0.1749444288319201,-0.2056455407645807,9.177712227467747,-0.0972643984651201,-0.050462938476101,-0.1262443615234922
335,3350,-0.0095908486459396,0.0038370653514778,-0.0043055376990814,0.01230518380182,-0.341956960541175,-0.18543084911127,9.432985185221074,-0.1284888413355376,-0.037873657169815,-0.1154386398653824
336,3360,-0.0084357632432195,0.0178724678426953,-0.0019213449645754,0.0088138880887379,-0.2506216760809634,-0.2470633045489838,9.47704451870557,-0.0628072942338823,-0.0241083166140821,-0.0919901415297602
337,3370,-0.0131879863634854,0.0147373846456188,-0.0064325087964137,0.0282091123684562,-0.4150751678560022,-0.2800490865062935,9.629996859490134,-0.0872606558728159,-0.0313351961399579,-0.0599467989447635
338,3380,0.0047532882400779,0.0235412283099708,-0.0028545524069506,0.0273856846952942,-0.1833847982562917,-0.2327406522418854,9.678971764892236,-0.0695958241269206,-0.056571976563675,-0.0776366220170381
339,3390,-0.0121612278350687,0.0241841279971369,-0.010422365382823,0.0224827022425647,-0.1165228099730351,-0.2200572393910706,9.433188058053862,-0.0746253770887196,-0.0272324046053391,-0.0737236658815971
340,3400,-0.017321106774451,0.0100279859684737,-0.0008860203035161,0.019639743287489,-0.4158411720458361,-0.3194012146633114,9.307190665871929,-0.109253013985049,-0.0328270600865601,-0.1023026608137871
341,3410,-0.0290830002192867,0.000849861010126,-0.0056607873487335,0.0234108074764376,-0.0582346902348973,-0.3591534829453496,9.256707749074051,-0.0750350445224999,-0.0335450759224111,-0.0878985314443051
342,3420,-0.0257406436902169,0.0133744423851284,-0.0175924304231798,0.0183720328770099,-0.1958639521161867,-0.3225863137252615,9.356657527780644,-0.0776228085944838,-0.018233641349566,-0.0580865067775983
343,3430,-0.027757126770831,0.014911427381287,-0.0054915644214885,0.020124519457562,-0.2363154354704371,-0.1314291112432605,9.607371801509611,-0.0909343345668338,-0.029865741394797,-0.0890418078398611
344,3440,-0.0464361944418092,-0.0227468532690679,-0.0274501219303034,-0.0087691411441282,-0.0585479346459189,-0.2507117294717342,9.42895253076616,-0.067759990724898,-0.0326223177279009,-0.0810082369757148
345,3450,-0.0323140395449932,5.366981734631574e-05,-0.0326079581632311,-0.0268733141938627,-0.216843337203187,-0.3464037002488112,9.463270975486738,-0.1159559568463886,-0.0246179212216503,-0.0325492359631209
346,3460,-0.0245344204541025,0.0050859678372394,-0.0269046413885945,-0.0032137671327509,-0.3775480753635776,-0.2852418202377457,9.188295352636764,-0.1400900432794169,-0.0425090190882314,-0.0737280240298861
347,3470,-0.0441622952992167,-0.0158363619180624,-0.0205212907686934,-0.0076207975936419,-0.2612640322954301,-0.2801748508594557,9.372875130246348,-0.0824671012629779,-0.0347848739983938,-0.0172756086775573
348,3480,-0.0401082419388393,0.0043180910691912,-0.0399666753559229,-0.0210722652762908,-0.2186639494255287,-0.1857569431791652,9.791070755726963,-0.0806555105190538,-0.0198963782225059,-0.0320133945866934
349,3490,-0.0213451628680016,0.0030429289694044,-0.0208204335319169,0.0019845073912153,-0.2617246568291028,-0.2172058814983696,9.655741517537765,-0.0779855310400136,-0.0357785259007067,-0.094390777674309
350,3500,-0.0399919533740719,0.006541968927833,-0.0263754047260776,-0.00628920820143,-0.1116884135331304,-0.1075768721087277,9.394289948171378,-0.0483507450429861,-0.0380583472523472,-0.0720513748088549
351,3510,-0.0095954803771727,-0.0061608514674979,-0.0073190634666548,-0.0023224665293555,-0.4294556908697986,-0.2730100245445283,9.279189296879078,-0.0921097332194902,-0.0366392490641753,-0.0662786043127167
352,3520,-0.0095954803771727,-0.0061608514674979,-0.0073190634666548,-0.0023224665293555,-0.4294556908697986,-0.2730100245445283,9.279189296879078,-0.0921097332194902,-0.0366392490641753,-0.0662786043127167
353,3530,-0.009832793755353215,-0.008162668316275089,-0.007722616808544657,-0.004038138425463184,-0.4125047674335568,-0.22785288038744955,9.328098482665784,-0.08161659924633669,-0.037161265472659445,-0.056449681214261575
354,3540,-0.010070107133533731,-0.010164485165052278,-0.008126170150434516,-0.005753810321570869,-0.3955538439973149,-0.1826957362303708,9.377007668452489,-0.07112346527318317,-0.03768328188114359,-0.046620758115806446
355,3550,-0.010307420511714247,-0.01216630201382947,-0.008529723492324373,-0.007469482217678553,-0.3786029205610731,-0.13753859207329205,9.425916854239194,-0.060630331300029656,-0.03820529828962773,-0.036791835017351324
356,3560,-0.010544733889894763,-0.014168118862606658,-0.008933276834214231,-0.009185154113786237,-0.36165199712483126,-0.09238144791621333,9.4748260400259,-0.05013719732687614,-0.03872731469811187,-0.026962911918896194
357,3570,-0.010782047268075278,-0.016169935711383848,-0.009336830176104089,-0.010900826009893921,-0.3447010736885894,-0.04722430375913461,9.523735225812604,-0.03964406335372262,-0.039249331106596015,-0.017133988820441065
358,3580,-0.011019360646255794,-0.01817175256016104,-0.009740383517993946,-0.012616497906001604,-0.32775015025234755,-0.0020671596020558347,9.57264441159931,-0.02915092938056911,-0.03977134751508016,-0.007305065721985943
359,3590,-0.01125667402443631,-0.020173569408938226,-0.010143936859883806,-0.014332169802109287,-0.3107992268161057,0.04308998455502289,9.621553597386015,-0.018657795407415592,-0.0402933639235643,0.0025238573764691935
360,3600,-0.011493987402616826,-0.022175386257715417,-0.010547490201773663,-0.016047841698216974,-0.2938483033798639,0.08824712871210161,9.67046278317272,-0.008164661434262074,-0.04081538033204844,0.012352780474924316
361,3610,-0.011731300780797342,-0.024177203106492608,-0.010951043543663521,-0.017763513594324657,-0.276897379943622,0.13340427286918033,9.719371968959425,0.0023284725388914435,-0.041337396740532585,0.022181703573379438
362,3620,-0.011968614158977858,-0.026179019955269795,-0.011354596885553379,-0.01947918549043234,-0.2599464565073802,0.17856141702625905,9.76828115474613,0.012821606512044961,-0.04185941314901673,0.032010626671834574
363,3630,-0.012205927537158373,-0.028180836804046986,-0.011758150227443236,-0.021194857386540023,-0.24299553307113833,0.22371856118333783,9.817190340532838,0.02331474048519848,-0.04238142955750086,0.0418395497702897
364,3640,-0.01244324091533889,-0.030182653652824177,-0.012161703569333094,-0.02291052928264771,-0.22604460963489648,0.2688757053404166,9.866099526319543,0.03380787445835198,-0.04290344596598501,0.05166847286874482
365,3650,-0.012680554293519405,-0.032184470501601364,-0.012565256911222952,-0.024626201178755393,-0.20909368619865465,0.3140328494974953,9.915008712106248,0.0443010084315055,-0.04342546237446915,0.06149739596719994
366,3660,-0.012917867671699921,-0.034186287350378555,-0.01296881025311281,-0.026341873074863076,-0.1921427627624128,0.35918999365457405,9.963917897892953,0.05479414240465902,-0.04394747878295329,0.07132631906565509
367,3670,-0.013155181049880437,-0.036188104199155746,-0.013372363595002667,-0.028057544970970762,-0.17519183932617094,0.40434713781165277,10.012827083679658,0.06528727637781254,-0.04446949519143743,0.08115524216411021
368,3680,-0.013392494428060953,-0.03818992104793294,-0.013775916936892525,-0.029773216867078445,-0.1582409158899291,0.4495042819687315,10.061736269466364,0.07578041035096605,-0.044991511599921576,0.09098416526256534
369,3690,-0.013629807806241468,-0.04019173789671013,-0.014179470278782382,-0.03148888876318613,-0.14128999245368729,0.4946614261258102,10.110645455253069,0.08627354432411957,-0.04551352800840572,0.10081308836102046
370,3700,-0.013867121184421984,-0.04219355474548732,-0.01458302362067224,-0.033204560659293815,-0.1243390690174454,0.5398185702828889,10.159554641039774,0.09676667829727309,-0.04603554441688986,0.11064201145947558
371,3710,-0.0141044345626025,-0.0441953715942645,-0.0149865769625621,-0.0349202325554015,-0.1073881455812036,0.5849757144399677,10.20846382682648,0.1072598122704266,-0.046557560825374,0.1204709345579307
372,3720,-0.0141044345626025,-0.0441953715942645,-0.0149865769625621,-0.0349202325554015,-0.1073881455812036,0.5849757144399677,10.20846382682648,0.1072598122704266,-0.046557560825374,0.1204709345579307
373,3730,-0.0111481747143184,-0.0364575297232269,0.0028459742016081,-0.0567630466166088,-0.4114550603036879,0.1560703022729756,10.395362255722,0.1344703244855889,-0.0413983019589281,0.1278747727979385
374,3740,-0.0095104885759753,-0.0490561775780007,-0.0048406671918145,-0.051166562563509,-0.3934155537356332,0.4416337170591548,10.384263840258765,0.087698398200832,-0.064179151079961,0.076762423141252
375,3750,-0.010931274531482,-0.0421016512412448,-0.0180123523716881,-0.0534379910073015,-0.4083148763153114,0.422594753628734,10.201227901133144,0.0729953008329255,-0.0359824204243069,0.1324431424259975
376,3760,-0.0075164350310552,-0.0475126597696398,-0.0034354024182444,-0.0509198745593152,-0.2390172352412932,0.5377892136218413,10.190161853643566,0.1189344487871069,-0.0376983700590686,0.109696033806835
377,3770,0.0153962763564019,-0.0495072651247259,-0.0065192183916154,-0.0369247888930117,-0.4086713125665894,0.2749713504532425,10.409705109145053,0.1051997718908932,-0.0607235205517974,0.0655652412057377
378,3780,-0.0215753136870848,-0.05999854315602,0.0043894754754369,-0.0470513988388723,-0.2262093017069769,0.3606714057863558,10.164278041607709,0.1020961281453468,-0.0505859957935112,0.1092171157586742
379,3790,-0.0145402099380282,-0.0538069542982291,-0.009036482324634,-0.0408583319194927,-0.3270404004326876,0.4070210953222279,10.054190479665143,0.1042096512219237,-0.0571962042775974,0.1774297033114261
380,3800,-0.0096697629624027,-0.0637675018300803,-0.0134875053525645,-0.0669517202465623,-0.3460715703828532,0.2603926730315356,10.200632126949102,0.0953030913655548,-0.028874068020953,0.1086551595744768
381,3810,-0.0006144785877719,-0.0551496892656749,-0.0083126097242204,-0.0387683570428554,-0.1592297079795821,0.4781139991806504,10.209215180986684,0.0928277931483502,-0.0371263857180354,0.0954380536894875
382,3820,-0.0185463057073415,-0.0593514716598561,-0.0180653282662984,-0.0534856379334971,-0.4328813727277435,0.4409096663729251,10.136396627499868,0.0888706847624405,-0.0528598189669074,0.1003789022702671
383,3830,-0.0130905021802134,-0.0424916631646467,-0.0263403961003965,-0.0388199365223946,-0.3517298747810788,0.2925732206516978,10.49370713394232,0.0979934423328864,-0.0406097304766244,0.1429845906283793
384,3840,0.0111390219301652,-0.0691823312466661,-0.0005919967049756,-0.0367828704217113,-0.3277586731947331,0.4318395586076607,10.369067864188414,0.096330930059381,-0.0485940013382695,0.1331076001853847
385,3850,-0.0070232633659301,-0.0397481147789559,0.0067624245926553,-0.0387867473921537,-0.3489008373164608,0.3519389425252751,10.268076485085974,0.0984589091964691,-0.0626866824005907,0.0968553282353918
386,3860,0.015779712066265,-0.0304147765211751,0.0057261599659561,-0.0264471576700824,-0.3642628323362644,0.427477988674301,10.347174633875571,0.0839340809542193,-0.0570682071825654,0.0511379495715364
387,3870,-0.0009976993288973,-0.0480920286756701,0.0150740770760097,-0.0192762909715814,-0.4695287624362618,0.3453637649610589,10.307368753485544,0.0791597629115512,-0.0375224009985369,0.0950327538514119
388,3880,-0.0040723558645395,-0.0424373489399383,0.0182035207732101,-0.0140447131254198,-0.3818492355099872,0.4292745896459708,10.368940089656482,0.0768517520192273,-0.0447829559073819,0.1884129326791513
389,3890,0.0207764903278091,-0.0517812071061901,0.0075683850284891,-0.0351662024550475,-0.5060470557374337,0.2690880850291263,10.024591012207294,0.0799387101309792,-0.054034183516953,0.09041923930561
390,3900,0.0133255641269185,-0.0351265174350117,-0.0027385634278688,-0.0370939488057972,-0.2925443256250534,0.3521737676321875,10.456357640367472,0.1472165123559184,-0.057920839132512,0.1279847939790983
391,3910,0.0022231258029058,-0.0430054483399598,-0.0219864747698624,-0.0400344080824775,-0.4363830914071401,0.3113444911004223,10.382641872916013,0.1121119546840385,-0.0540715197418272,0.0885323032325051
392,3920,0.0121336086923298,-0.0648168277992225,-0.0149436595166434,-0.0296199339015123,-0.2698241439951689,0.3751521435719538,10.336160326057186,0.106362324630868,-0.0480668657136866,0.1414992606921359
393,3930,0.0246746754564647,-0.0573553174303808,0.0205692949810913,-0.0367203951791812,-0.3600396223534278,0.3419545948326117,10.347401069412246,0.0757543928082321,-0.0523494519332802,0.1887610373952385
394,3940,0.0117556070470385,-0.0344109285963093,-0.0141981394918177,-0.0308017024631482,-0.1247163408442827,0.4543506300772701,10.753871390692764,0.1202600891504191,-0.0526459731071441,0.1547556197053498
395,3950,0.0082807482545113,-0.0336875126402832,0.0109465432073051,-0.0310519857057354,-0.2779919625227658,0.2897141519322067,10.282387792305585,0.0750986240303104,-0.0575690227684195,0.1370934991388296
396,3960,0.0139233279510842,-0.0307929156963442,-0.0086434845669517,-0.0243484139777969,-0.3924123544932613,0.315630366578847,10.380165276856824,0.1163444579525895,-0.0476196386417717,0.11019117099846
397,3970,0.0046707695589275,-0.0378465717347044,0.0063427308288396,-0.0465465407105937,-0.1901947369646869,0.4919111642638232,10.027931566313256,0.1088469449133409,-0.0344121134751504,0.1370323932776924
398,3980,0.003950691871314,-0.0264073416666318,0.0123201159972145,-0.0048557544379508,-0.2928943853850094,0.5901933253918623,10.13586401179204,0.0602092255062674,-0.0538348395362518,0.0998671779111833
399,3990,0.0269069777058854,-0.0355965493491529,0.0206743451078327,-0.0267894393269357,-0.4081957028506042,0.4334022339515574,10.52202093858633,0.0780803441415573,-0.0636875186276382,0.162717186863495
400,4000,0.008479135148201,-0.0406508156795603,0.0148530225778118,-0.0433938280505003,-0.2908178696818265,0.4484200958135749,10.337260262462522,0.072581368414284,-0.0394191212217059,0.1835137049006221
401,4010,0.0393941038538173,-0.0302183695828445,0.0059247372890491,-0.0146210165238917,-0.3968555936466175,0.3482084280498109,10.056546483267256,0.1060120476723746,-0.0444301163899548,0.153826466923265
402,4020,0.0110745143396311,-0.0209742788486499,0.0050048258323234,-0.0351893382350886,-0.4143819235397387,0.6619060343573973,10.500400748644894,0.0905976932680657,-0.0304133367075762,0.0968158362145782
403,4030,0.0076466035525638,-0.0500696732433165,0.0221582934600368,-0.0566465972090262,-0.1667314100428429,0.4925406650852634,10.188611618842277,0.0958117632135781,-0.0433026348022393,0.1507139843325844
404,4040,0.0298826980068973,-0.0516559954883273,0.0094976929008234,-0.0199337316727739,-0.374846294031721,0.408093919528367,10.082862242986073,0.0808184811847249,-0.0458540352053307,0.1443572946513132
405,4050,0.0094397702943468,-0.0466666145751577,0.0084766806079671,-0.0220968130580917,-0.1554659308100006,0.179023819556877,10.122092486194456,0.0739596743473962,-0.045229641814078,0.1467688528255777
406,4060,0.0042220698490893,-0.037876552991558,-0.0151421655074013,-0.0471006753776706,-0.4289406056855854,0.4722709307239091,10.25312998855035,0.085807633093523,-0.0516870869634378,0.0901474868964266
407,4070,0.0367097070487793,-0.0262724909521402,0.0201035127159283,-0.0287631856849713,-0.3244827262008747,0.4431293393185885,10.088771877818289,0.0954944659057392,-0.067494255088816,0.1692854138167205
408,4080,0.0132738462725977,-0.0250084659096656,-0.0119099634455918,-0.0203060325287447,-0.3442155347663382,0.4598243746986682,10.355619059950856,0.1082671470981079,-0.0399420124864559,0.1975425877854313
409,4090,0.0125462710404999,-0.0463925391253855,0.0095997523863751,-0.0223059392340138,-0.5275346077232599,0.5339817975162614,10.126545929685182,0.0919715683498151,-0.0600541736810508,0.1271569909906764
410,4100,0.0191595012335992,-0.0316180979502037,0.0035623119680438,-0.0260779305702768,-0.2863044046583367,0.4870266552325391,10.517506889752685,0.0582625061664551,-0.026474775478745,0.0889105578807942
411,4110,0.0215887669596102,-0.046576376976049,0.0121504646648171,-0.0476700136287109,-0.1295528383783162,0.4230761727008643,10.33879771768337,0.1109462700652076,-0.0396187040842032,0.1396328000542989
412,4120,0.0162915246353435,-0.0388965741903593,-0.0170874268723229,-0.0345109586714073,-0.3571435806744255,0.5900935518394578,10.318965260478333,0.0602996858763014,-0.0578176511717859,0.1662107500236317
413,4130,0.0086529750131622,-0.0483508968962178,0.018699688233791,-0.0555731160134622,-0.2471809406831617,0.4159908187680472,10.438931379091306,0.103316018649449,-0.0440040024215165,0.1285043327025348
414,4140,-0.0078833279736454,-0.0494611720545763,0.0062871062817217,-0.0381566871323137,-0.2090872659251406,0.5559575044981433,9.936264649418742,0.0799084367260587,-0.054674720022112,0.1695280678781463
415,4150,0.0190880218460984,-0.0333651066558829,0.0225530776565056,-0.0584857403652189,-0.2881642205964129,0.5783665603132293,10.309425385980235,0.1099654766641335,-0.0598807720591489,0.1134093674012455
416,4160,0.0134543183990805,-0.0297685915957988,-0.0018827068319077,-0.0366464151810571,-0.3869454922345265,0.4928169698781576,10.396449118136012,0.0469501958289787,-0.0500062906654858,0.1587604238836733
417,4170,0.010033134977268,-0.0390100734479072,-0.0025914719278766,-0.0490162559192876,-0.3499228644058376,0.5402472725066911,10.24348340977032,0.0552666629617784,-0.0366244620824131,0.1405170627552172
418,4180,0.0144098024191377,-0.0306667964745156,0.0141201133275128,-0.0432943080456975,-0.4129745531528418,0.3958089057203455,10.164885972097762,0.0441308745042433,-0.049097669917695,0.1416162327790711
419,4190,0.0014413782801634,-0.0283022361258902,0.0075821687945858,-0.0175765400336985,-0.363077029847337,0.4929712345094343,10.245396435373264,0.0788909300237319,-0.0531350528079315,0.1397807173153687
420,4200,0.016662274185413,-0.0328126636285947,-0.0138253982331818,-0.0499458777422396,-0.4196158479432239,0.4094046438138873,10.172721802200382,0.0652731319139893,-0.0519750680434989,0.1005073681103419
421,4210,0.0362724724106048,-0.0330176834157987,0.0119297009618978,-0.0357035780838337,-0.3593036588252274,0.5499406998702638,10.125275695969508,0.0705846250757182,-0.0566741094555068,0.0719735385514615
422,4220,0.0228484537622758,-0.0331231610524217,-0.0039654498787203,-0.0489932431288986,-0.2057561444297026,0.3092931051913365,10.171250123543317,0.0485286642327919,-0.0512847087063411,0.1120770665825585
423,4230,-0.0018492831322222,-0.0487148869853797,-0.0202397837888279,-0.0216698942608592,-0.4754468903137584,0.3352784832108617,10.480697269903892,0.0972583484886004,-0.0577151258399648,0.1729509655618945
424,4240,0.0011018775084342,-0.0504924107409788,0.0176983454755725,-0.0500663055129181,-0.3388070366945651,0.610568561313738,10.218334030725966,0.0997906565891099,-0.0468858865597043,0.1424993625794688
425,4250,0.0018075832650191,-0.0604253752265564,-0.0122219504240414,-0.0440603207293625,-0.49529383451956,0.3873677355182155,9.786046682486049,0.0856265602876351,-0.0440552789375741,0.1879630147237216
426,4260,0.0096312578447984,-0.0546880580896845,0.0132862680819742,-0.0339387433186512,-0.1872023161621254,0.2713451410822365,10.120894020994385,0.0902670831953499,-0.058735354057812,0.1710746418002018
427,4270,0.0077315681600951,-0.0203577809286369,0.0010256087803376,-0.0304579329230373,-0.2483680833860072,0.4585019381751903,10.214230787519048,0.0477599155461318,-0.0599457828032613,0.1267839402028671
428,4280,0.0221923441297984,-0.0444532490875248,0.0236076665436882,-0.0279151785767581,-0.2500805099016538,0.4793146633509303,10.026771551929428,0.0550801187636944,-0.0427345794397516,0.1274444310504385
429,4290,0.0456481279464263,-0.0423698293689047,0.0309071014625785,-0.0283963730005867,-0.3152817882839945,0.4122520914381231,10.002610731593611,0.0488665292911116,-0.0438981661694509,0.1110581948720349
430,4300,0.0443775191888375,-0.0122997317643313,0.0303335230899828,-0.0153705307273676,-0.2230922909216345,0.49674935278643,10.07962386270508,0.0765317395413546,-0.0684378962804461,0.1146979044167788
431,4310,0.0194960968725988,-0.0650790502616785,0.0127253706849175,-0.0422196411713643,-0.3129728487112829,0.4510368986665393,9.987625133806628,0.0481297042523878,-0.0567145200251697,0.1216655649884021
432,4320,0.0062008584762232,-0.048335021723483,0.0066037433143364,-0.0309607707224432,-0.4032396619885849,0.4480219080267417,9.6570346252685,0.0434779321799728,-0.0536955728520493,0.1522771939479104
433,4330,0.0345256325231478,-0.0607629409471979,-0.0101548567902573,-0.0307416355325135,-0.3289698207253703,0.6111729634835021,10.062407745821067,0.071630037458362,-0.0535191966554124,0.1361354639040516
434,4340,0.0375918350753553,-0.0280418123002797,0.015174908830079,-0.0015284612789924,-0.2992559589528575,0.6479917766404992,10.217438935086486,0.0619840051926463,-0.0430199299441669,0.059102036608034
435,4350,0.0464323446064724,-0.0253219836762427,0.0223959262765487,-0.0007533828110876,-0.2551291145265557,0.5082063796696573,10.382961017196967,0.0894695380670286,-0.0231103541932608,0.1759704510444325
436,4360,0.0497533698229935,-0.0210526834459926,0.0458727073754858,-0.0018023793410804,-0.388766924569693,0.2575240486229668,9.81963686631119,0.0584145649836832,-0.0382366629513051,0.1437021992468428
437,4370,0.019536731808944,-0.0409361466760621,0.045677319031629,-0.0222348669073312,-0.3029280471982136,0.4502456936597067,10.22358155422422,0.071996077789996,-0.0510137775683701,0.1474828193938976
438,4380,0.0159669942280074,-0.0345227797822876,0.0176642477781331,-0.0053681802097575,-0.4479594475070244,0.6280160476017185,9.895011764690269,0.0604756183101451,-0.0426231501118224,0.1471612820062612
439,4390,0.0395875793068269,-0.0375219574964998,0.0356709960775449,-0.0181269656725168,-0.3173604482019446,0.5426522663315589,9.680220864759775,0.0896133758239534,-0.0694352081629074,0.1578452156030957
440,4400,0.0473391725931377,-0.0070000236137815,0.003740847473121,-0.0210584177874966,-0.2465598042935578,0.6240424472761987,10.156358872622338,0.0194350841364432,-0.0515427346839428,0.0884874643721884
441,4410,0.032044617825919,-0.0230421049383296,0.0372435476340558,-0.0068225960231394,-0.2670919051899483,0.4883096234294054,10.076757742184911,0.061603537856834,-0.0498536046025918,0.1663556298556049
442,4420,0.0262764946993904,-0.0433389513102416,0.0032272028567207,-0.0370264305693995,-0.2195010656784526,0.5438801040761336,10.206214086960658,0.0682770715512324,-0.0263879020176338,0.1779056693576945
443,4430,0.0470235246338334,-0.0097256148844265,0.028508504257985,-0.0122162000382911,-0.360390656272756,0.4837440834539745,9.995265961501625,0.0753112819160154,-0.0586715844580775,0.1805472008413259
444,4440,0.0519452735516028,-0.0057614309118696,0.0251889593681385,0.0056200138445848,-0.2951347236586985,0.4828934592362061,9.95942888682896,0.0603318241437911,-0.0363087333371538,0.1126984477135844
445,4450,0.028614733718907,-0.0142807206508068,0.0551958181600963,0.0042646246813951,-0.3449520536025526,0.4191351824522225,9.872466033709667,0.0935324730106675,-0.0596213643410137,0.1527125582127325
446,4460,0.054689716383091,-0.0194343868241073,0.0446832513786962,-0.0124500015440374,-0.3513715322107492,0.4719479468870856,9.851765342244002,0.042755035815845,-0.0307553086944187,0.1768862778261427
447,4470,0.0620912041796814,-0.0283330392178478,0.0193408740715349,-0.0254285221338586,-0.3598271860864895,0.5995680670392347,10.207533746026032,0.0474531135458158,-0.0549123143445093,0.1207433288775072
448,4480,0.0509252592790029,-0.0165320600685149,0.0230655031225866,0.0011004605283685,-0.1858629982399915,0.6429072621555556,10.430403613723096,0.0534169503762379,-0.0243774818523635,0.1586095259912081
449,4490,0.0314690971582692,-0.0183360488578904,0.0367964994024953,-0.0166530338056565,-0.176483161960632,0.3389135514087815,10.04629786820984,0.0480449476501624,-0.0482945772114112,0.1506947734457632
450,4500,0.0520720586340957,-0.0194926023562181,0.0380307481976531,0.0147858891405838,-0.2196222012711539,0.4194817342479787,9.771987781558735,0.0526666849789033,-0.0560033841776342,0.1249658297182853
451,4510,0.0404114158010593,-0.0243269253846158,0.0380906745574351,0.0023305013343933,-0.2868829018308532,0.4468750978655129,9.64954064890013,0.0444061842406543,-0.0430556874490838,0.1245305703887211
452,4520,0.0559503659146298,-0.0218281093723961,0.0468124807263757,0.0058770807621626,-0.3638074904692047,0.3034676301848694,10.097255382414158,0.0697879794413308,-0.0347275144440891,0.1433654709064541
453,4530,0.0439263280937285,-0.0065982400993965,0.0274770903005382,-0.0076105830173442,-0.3679908482199597,0.537983118919757,10.195837609266816,0.0937513836203754,-0.0387334494350025,0.1346002009524748
454,4540,0.056744204570046,-0.0049610932477315,0.0640251473159672,0.0068800428358624,-0.1000061183478938,0.5002763324162472,9.838933611915245,0.0440389383353965,-0.0413288863683624,0.1644324958396716
455,4550,0.0513675420078486,0.0093302286038281,0.0356652174430057,-0.0010948215390796,-0.2981653921117515,0.5104876357411609,10.060368770598163,-0.0002672913861998,-0.0515622455530383,0.137778802876276
456,4560,0.0548245723563611,-0.027962255241324,0.0387974429271468,-0.007858805902297,-0.1235536294888504,0.3383640620519434,10.217961032414037,0.0472182950251326,-0.0501852186220587,0.1322178711495426
457,4570,0.0438952866470605,-0.0118909660651787,0.0556405542170979,-0.0070195115175549,-0.2552105160548027,0.6413662504781844,9.961677159338294,0.0515829156692786,-0.0384144652493346,0.1365255535920558
458,4580,0.0415929535027783,-0.0007383481818736,0.0448227881562821,0.0018890539936326,-0.1512794381081106,0.5979828911625155,9.977795529055944,0.0567682950970509,-0.0457663729828753,0.127151362591459
459,4590,0.0497740164713311,-0.0223123095632844,0.0246797503043792,-0.0096070699131057,-0.3188172493963841,0.4714840335599436,9.651276767335952,0.0137498786178794,-0.0159202319793883,0.1666996051013092
460,4600,0.0541241780599243,-0.011869083226478,0.0541920429205053,0.0021626755356341,-0.3563527844411047,0.5695962998661049,10.063614095901135,0.0203598271080378,-0.0556446874177021,0.1805430842642175
461,4610,0.0376340389107409,-0.0182530218833951,0.0335575363034719,-0.0038285071004946,-0.2132235578446062,0.4820097323595531,10.131144579606604,0.0089496618173738,-0.0437247202438196,0.1743546800878631
462,4620,0.041001475623842,-0.0336296694908656,0.0445045542578651,-0.01301632740847,-0.4131271764686824,0.4306024629988672,9.907079723692496,0.0581072095709788,-0.0321128630145607,0.1662407188795516
463,4630,0.046030535811443,-0.0123331943173962,0.0489782136953386,-0.0075839341819311,-0.2159564919496899,0.4704920368302969,10.15805597800147,0.0408872712341401,-0.0576685974333878,0.1511009501264107
464,4640,0.0407816759528323,-0.0372680940928932,0.0155168619592101,-0.023125577150932,-0.2587769510866011,0.4098877178469523,9.85590632733293,-0.0149605308360714,-0.0322697055727345,0.1249613540188156
465,4650,0.0324451453876132,-0.0115690158617529,0.0366098427686612,0.0012102294240221,-0.2089848968645943,0.4113928502197033,10.10440827945852,0.0378469200510752,-0.038663751566478,0.1681313461600693
466,4660,0.0393463729844628,-0.0173401128601225,0.0486924296178948,0.0053834776864952,-0.3219177344232257,0.410631075760189,9.764766863046727,0.0162325273820199,-0.0271058239962577,0.0998697453650636
467,4670,0.0581583260291827,-0.006543765320951,0.0305862532193732,-0.0073049214074202,-0.3756678370155061,0.5378862189447583,9.967778013491053,0.0266996758050909,-0.045839309589618,0.1652719135620588
468,4680,0.048558696748573,-0.0321504022337233,0.0324024093947698,-0.0118587153041095,-0.0822189805149512,0.5159994892453438,10.294766406373476,0.0356885636496677,-0.0441966556571852,0.1766265679210191
469,4690,0.0231282504458049,-0.0465002293898856,0.0313306021142006,-0.0248838350351325,-0.2135889715633767,0.35249415255482,9.949716941702428,0.0296443627392087,-0.0331749224079613,0.1381247729349365
470,4700,0.0383336147268155,-0.0143942178077728,0.034864911288104,0.0117609721003671,-0.3999662570387462,0.6725628388779612,10.129201693891716,0.0174432292771562,-0.033389157437869,0.1672505398229769
471,4710,0.0479784827631583,-0.0313838763171468,0.0061677419399362,-0.0047498580677903,-0.429764802152232,0.2881877341015331,9.650185878695725,0.018405830124419,-0.0268714506911857,0.1712923554029666
472,4720,0.0447617101811014,-0.0219753311597391,0.0425368793826057,-0.0246702974213277,-0.289250792980588,0.4667431344499574,10.010238517592882,0.0508295823659211,-0.0420028717607063,0.1491937769303505
473,4730,0.0392258931577834,-0.0404765143801035,0.0280362277333238,-0.0450633294326181,-0.2602358153949232,0.5768734067106783,9.752508991095496,-0.0132007297153937,-0.0374322670797809,0.1737144290989106
474,4740,0.044116639022062,-0.0196565220995793,0.030244670477979,-0.0302838323338612,-0.2330169810954024,0.4511491539759098,10.166625938013413,-0.0061650479002858,-0.0329178532940689,0.1475683789647623
475,4750,0.0483856959418123,-0.0216598511318633,0.0323255900351152,-0.0153264360924859,-0.2831961276476359,0.5551798335820101,9.87110579519959,-0.0099778840045211,-0.0339184339925709,0.1486059200841292
476,4760,0.0188976323238198,-0.033881852670357,0.0159832718348413,0.0041484532874751,-0.3908981748907909,0.4928930555112709,9.833349990404646,-0.0056181567857353,-0.0407087751666181,0.1084550864633759
477,4770,0.0172073947307199,-0.0513949108561809,0.04119527405708,-0.0387215683024788,-0.1094330518658127,0.4537221841455376,10.146667084429067,-0.0068145284633002,-0.0343602208048643,0.176070384692263
478,4780,0.0201955074580764,-0.0417846137928896,0.0391522611868132,-0.0056717330022694,-0.2983089940277623,0.660092132466319,9.806440723961218,0.065694150179225,-0.0385911340893018,0.1330713770961984
479,4790,0.0357892837874588,-0.025444132615648,0.0233856700263335,-0.0126526928996094,-0.2639268442856586,0.5559198554693434,10.219273340896908,0.0112448087808237,-0.0440617664178406,0.1837178131846664
480,4800,0.0396718402992984,-0.028436328720268,0.0449139701915427,-0.0107172297593231,-0.1136181702776748,0.3938134011524352,9.89322948189014,-0.005518342623286,-0.045180300539997,0.1447902487505646
481,4810,0.0414940757427965,-0.010118708666201,0.0250201732278423,-0.0117171123744716,-0.1256102263086088,0.5451668003117247,9.972558790670346,-0.0145548686880403,-0.0536601309933052,0.2029863640152436
482,4820,0.0547967061843285,-0.0191710168085472,0.0221158272088697,-0.0167422579955903,-0.1668496528338555,0.6257454377828789,9.77515628208032,0.009762546192647,-0.054829805498463,0.1978227425271155
483,4830,0.0247325566138775,-0.0216576444598755,0.0111536195542181,0.0080254582465372,-0.054580652018286,0.4039816100774105,9.911303047080036,0.0140751068494587,-0.0390248889843299,0.1941205227862861
484,4840,0.0538980940032828,-0.0242773983468902,0.0364541516006788,-0.0033699779300103,-0.1120130497654305,0.5083780567111335,9.865520202851693,0.0032346236562843,-0.0305429313441131,0.1227271012401779
485,4850,0.0462423369459566,-0.0005310497836436,0.02449325510796,-0.0141518946166457,-0.2024246395155852,0.4390558039094645,9.862701998160228,0.0122831147543377,-0.0196258282796462,0.1607043098160581
486,4860,0.0440674419229798,-0.0101131303681696,0.0303557195150586,-0.0106958508671123,-0.3037633982480097,0.5235714641624212,9.658556464207535,0.0052245811073446,-0.041591585153828,0.1290392460327576
487,4870,0.0505559920885867,-0.0067258841914609,0.0462240943490711,0.0095600634724913,-0.0427884424039396,0.3646580835265853,9.786219414675996,-0.0183059736103621,-0.0392459610146804,0.1310828953380926
488,4880,0.0538260697661203,0.0098221685417374,0.0382628126694337,-0.0047411869311153,-0.1539363920352687,0.5478320411321791,9.512495080463095,-0.0170647162705007,-0.0394779287781926,0.1583991456544268
489,4890,0.0508755326680721,0.008524779357193,0.050252837319212,0.000930518690347,-0.2376414371132158,0.5312674488616588,10.118953082088638,0.0237221086970191,-0.0203308425615059,0.1762714939897511
490,4900,0.0350097210040309,-0.0105019772733322,0.0383875296454064,-0.0061428113658652,-0.2220480604692771,0.6650720798745553,10.035676572988756,-0.007929845147488,-0.0285038971543819,0.1590863411344848
491,4910,0.0397713180731039,-0.007382770294327,0.0374946672440992,-0.0074169968554738,-0.239824492131796,0.4783930892193215,9.564129850688577,-0.0309228547516607,-0.0322773880305049,0.1450281173801301
492,4920,0.0576988115492035,-0.0262846015324093,0.0428391443486284,0.0108980374689003,-0.2495439263300372,0.693999282483886,9.830318695311966,-0.0216971672633149,-0.0274515624493736,0.1760766220725277
493,4930,0.048991718257321,-0.0141033307938265,0.0436824072338825,0.0126094784837563,0.0080524030187921,0.5726595286398638,9.836188357079411,-0.0256169207215014,-0.0415568892901654,0.1837663394570069
494,4940,0.0471235874123006,-0.0121066775251423,0.0650465222085478,0.0136407575263276,-0.0213985977633039,0.4622583097064731,9.593009055192343,-0.0195813744648297,-0.0307035784894996,0.1627025956254199
495,4950,0.0754447215566768,-0.0210851289852991,0.0877374414509066,-0.0051774363878603,-0.338210877823256,0.3289224734827439,9.553537436817352,7.411908342024216e-05,-0.0379924549602897,0.1445271856028985
496,4960,0.0617074718607449,-0.0022538002653624,0.0620860159284282,0.0178215794988412,0.0917360530952313,0.3175387817628322,9.527350262253565,0.0204720435856788,-0.0267335043475085,0.1320651564355237
497,4970,0.0376194664582475,-0.0035567518427838,0.0446897219484243,0.0095782841957766,-0.1537279163189833,0.5359157389413207,9.707471547777317,-0.015538334795233,-0.0390784705887775,0.1532672851977298
498,4980,0.0565683398102141,-0.00414866103374,0.0497290624125033,-0.0069601095481868,-0.2034060127324965,0.4421658286130698,9.539428996272983,0.0046227408956894,-0.0224572103526006,0.1500268014025829
499,4990,0.0688293267255827,-0.0020518152518814,0.0504724054824932,0.021876805809559,-0.1824291450744354,0.3654189095318733,9.898074415322275,-0.0228694533271456,-0.0482590458048504,0.0889799500952175
500,5000,0.0587670016131601,-0.0250947998931444,0.0493094012632568,0.0143399169960812,-0.2959816211570811,0.4445113484688971,9.945836666600606,-0.077827960450749,-0.0362528823445433,0.2211720294115727
501,5010,0.0766202217427761,-0.0220247199926678,0.0570862427730956,-0.0037303843165606,-0.1192645760612477,0.4027263976850753,9.550836763002907,0.0073688832441666,-0.0444714582982946,0.1525898620508043
502,5020,0.0464130514113258,0.0090682263133925,0.0714906603005704,-4.202515342189087e-08,-0.0986197434487635,0.630301527110476,9.467728639593222,-0.0506006473114188,-0.0110159539186395,0.2059983431780847
503,5030,0.0603907536580224,-0.0110992142664492,0.0586882378178402,0.0100190662816595,-0.1310850041324947,0.5258312542132734,9.58387674453503,-0.0335224278695538,-0.0287306278608762,0.1034620050818219
504,5040,0.0384060359298562,-0.0059355128512522,0.0323177738269712,0.0029686824877773,-0.4097993079806737,0.4611840319955053,9.748659932316624,-0.0258927050572437,-0.0240104748445634,0.1388687902915226
505,5050,0.0450343132738148,-0.0249637813469724,0.0521753407564227,-0.0132828139639886,-0.1338810069170571,0.3947024358408274,9.452512091489847,-0.0087341223182074,-0.0263274417262393,0.1020820821079006
506,5060,0.0481234378788073,0.0243082067227217,0.0614097074490257,0.0236139975384325,-0.1304296490733526,0.3857130395957492,9.34562902474862,-0.0158954731964333,-0.015020000873716,0.1483766756371964
507,5070,0.0819511212140879,-0.0022693645242061,0.0550050648128021,0.0170442623116524,-0.1371949522320309,0.5546006973801563,9.691420936929225,-0.0081419664200734,-0.0192104196877664,0.2012128578707084
508,5080,0.0426818391618792,0.0133351636475484,0.0550312293452118,0.0077050398493003,-0.308702412478033,0.5650265518450481,9.614382491233888,0.0152366850178637,-0.0293420054269327,0.1172316215044262
509,5090,0.0537748998206856,-0.0105397808807486,0.0256314298025347,-0.0120440222756947,-0.1741359400763223,0.5114785566738221,9.698615761806474,-0.0283434585552482,-0.0269125525065583,0.1507469425490047
510,5100,0.0535836365237843,-0.021164323331943,0.0542132003987857,-0.0157904072597278,-0.0917329488561718,0.3936922219836721,9.715240888659494,-0.0514426718041975,-0.0350352151311218,0.1430276727744084
511,5110,0.0486361478988759,-0.0234127208554785,0.03440928888686,-0.0006952345677781,-0.2419726679008113,0.6685267435225397,9.433204174463253,-0.0452010150190478,-0.0237100108323918,0.2026837660688922
512,5120,0.0599494329993679,-0.0123060503949072,0.033065348897514,-0.012442832624083,-0.2604916160113311,0.3864606237824975,10.135646778499142,-0.0400487112582154,-0.0130054788999403,0.156376783829422
513,5130,0.0260325571247,-0.0189048533299564,0.0351817877621915,-0.0177348716592563,-0.1653816743171706,0.4617229558556374,9.913540485976071,-0.0187480468135459,-0.0157702737465824,0.084953116686706
514,5140,0.0452632496756996,-0.0135144440627963,0.0264582135548028,-0.0330088643053647,-0.1407031992958143,0.4982979690926427,10.091729453471928,-0.01129090681814,-0.03360412320637,0.1120184186846947
515,5150,0.0372592176535625,-0.0248686374525384,0.0178418432775245,0.0060465114551353,-0.1489380073544828,0.6766669766330217,9.378516418977895,-0.0371707462209999,-0.0189383421438996,0.1842932956415371
516,5160,0.0371207604008951,-0.0243035949944376,0.0444470371429738,-0.0122259020406407,-0.269160004819927,0.6047288427477501,9.561564495707035,-0.0427096774231863,-0.0272046682445047,0.1607310452456611
517,5170,0.0393782087414296,-0.0270403046843992,0.0280872019204215,-0.0216408979470679,-0.186207206609875,0.4297946219161658,9.743496404628331,-0.0374692828529308,-0.0213600660823003,0.1358299672563764
518,5180,0.056896773228454,-0.0233646584186223,0.0248575644399278,-0.0148822014512315,-0.1468616474380423,0.4459989241019256,9.585593900923582,-0.040893772971364,-0.0259783245343063,0.1710122588459384
519,5190,0.0187988788034962,-0.0334094644500346,0.0178449793764019,-0.0377925192119488,0.0170953533664363,0.5230747425317619,9.452512179043003,-0.0405917496512847,-0.0147014640757699,0.1846632902933703
520,5200,0.0175291363435282,-0.0380686129143222,0.0074609686644115,-0.0435967936436219,-0.2526015949285152,0.5375744047858007,9.727688308838797,-0.0273787886505518,-0.0210176086858437,0.1670090458972724
521,5210,0.0340956711884085,-0.0365121107514279,0.0090000686811931,-0.0483214512528901,-0.2074723672643428,0.4765493719099408,9.50179284586171,-0.0468747184206642,-0.0317871214299153,0.1567014466899641
522,5220,0.0290734065585734,-0.0180665206521004,0.0029849781866067,-0.0286624548776871,-0.0105860272160812,0.5801620365661363,9.386750252160963,-0.0232341452027979,-0.0162144322519058,0.1155697259200313
523,5230,0.0267514526357352,-0.0266535765118203,0.0179868282479194,-0.0249233584247296,-0.0363729664089551,0.4795293051221814,9.440320853674146,-0.064569001428193,-0.009503841928758,0.197818040626367
524,5240,0.0234738931259651,-0.025726733024533,0.0364337247099378,-0.0279742277354472,-0.1232543656500129,0.5437329422246957,9.360777495026184,-0.0728584702646912,-0.0351520473608355,0.1943071063852696
525,5250,0.0582287560152034,-0.0173184622665417,0.0461534543914357,-0.0181326973749583,-0.0201204043819793,0.5299021866499639,9.576323017758344,-0.0317710294394733,-0.0074005176323901,0.1762922872492162
526,5260,0.0198859910183273,-0.0249580123316042,0.0110110513218736,-0.0454566357408786,-0.1676881953913315,0.5498158249572157,9.332719800292738,-0.0475108278412454,-0.012611299747285,0.1646424672386182
527,5270,0.0310410111976439,-0.0406945341313047,0.0197531112136291,-0.0281345999527436,-0.0273271362053625,0.5372603345747303,9.646797652538137,-0.0187328917990527,-0.0318160630067402,0.1397592462191912
528,5280,0.0265729288049796,-0.0356407337041635,0.0190097030659287,-0.0174209186291112,-0.2050631169289707,0.4405048687415441,9.12952705005656,-0.0257462323942802,-0.0073558817873731,0.0642998759613149
529,5290,0.028765326259314,-0.0456211795422878,0.000988500067648,-0.0285489666882694,-0.1358411110551873,0.5026103877820574,9.46712749338265,-0.0457018024228225,-0.0030998193516142,0.1807272462930757
530,5300,0.009802529511552,-0.0224722472982771,0.0034895630043411,-0.0327497285467354,-0.1885991058613583,0.6013518431101461,9.470879829024762,-0.022474372834408,-0.0172225464762802,0.1732582125092822
531,5310,0.0226598748250501,-0.0204384220411995,0.0065414793304171,-0.0162353206364285,0.0445438777244412,0.4162969575903532,9.420148575699514,-0.0209421596163143,-0.0256523877164812,0.2207231172016206
532,5320,0.0144064356620097,-0.0465825920297972,0.0382652283822078,-0.0230129720105792,-0.1637940972207245,0.5332220447011476,9.473442516973572,-0.0588940445387839,-0.0079654408211344,0.1436141026550417
533,5330,0.0235559055232455,-0.0321819726504524,0.0181695134083659,-0.0292058734814569,-0.0979835483917292,0.5449118860408843,9.404819884251262,-0.0513640829468074,-0.0038128186252468,0.1260324895288785
534,5340,0.0339369518133818,-0.0392779204787463,0.0075743438303934,-0.0143563216269926,-0.0392189627785503,0.5510919153916977,9.62899600408857,-0.0352439391665545,-0.0132675867618465,0.1611986406034877
535,5350,0.0261347450596397,-0.0222899089321329,0.0394825984882879,-0.0424959603589685,-0.336202368755072,0.4784254621657964,9.593636798310698,-0.0532903182501314,-0.0161278883022541,0.1324328577869532
536,5360,0.0238015840606429,-0.0340967625175113,0.019160122322592,-0.0233636138357273,-0.2020180804741491,0.652562896813371,9.327862774011408,-0.0376463982014971,-0.028136387272641,0.1329934634265182
537,5370,0.0398330108444078,-0.0378856970808872,0.0316932964255678,-0.0054869569702002,-0.1794967625915688,0.5261717151351973,9.269594533387597,-0.045252262536397,-0.018975001964915,0.1262468144032472
538,5380,0.022451942160468,-0.0365935153665904,0.018517800884944,-0.0140903394059134,0.175639458879521,0.4821253967522018,9.35353817327506,-0.0495097127303807,-0.0084480918424463,0.1167691297105016
539,5390,0.036487673119977,-0.0293930886952624,0.0277220081970491,-0.0394678219497361,-0.0728126953894179,0.3403732964633874,9.449696564924553,-0.061837801295847,-0.0199937087827144,0.1656897438198867
540,5400,0.0153780407948724,-0.0207969552617966,0.0202680444055238,-0.0259825120042142,-0.0042759391612415,0.5458933279908958,9.211885015332332,-0.0251840985878262,-0.0111038887511774,0.1543816595848855
541,5410,0.0369201973512985,-0.0294805191886021,0.0155456469706806,-0.004695168592702,-0.1275665975499788,0.5698291410488021,9.40891539067209,-0.0731936363963471,-0.0181869266359398,0.1410729819157233
542,5420,0.0273364736115507,-0.0236901494549775,0.0322881931069801,-0.0270610562324162,-0.15995346094972,0.4952355220043766,9.754407169641752,-0.0587911059330586,-0.0244968263265288,0.1263210454369241
543,5430,0.0403130306006617,-0.0133783568170266,0.036580959192915,-0.002356711462025,-0.0635860705282298,0.4076935445726895,9.968418807972894,-0.0976465808172293,-0.0250087245308058,0.0979750578362699
544,5440,0.0203077797719658,-0.0096966024593611,0.0169979720818616,-0.0208002547579205,-0.0814671902167448,0.4499557958678049,9.760842441038582,-0.0294079269797399,-0.0086954009386076,0.1421279780501738
545,5450,0.0166612104990132,-0.0438419083543292,0.0155644336382792,-0.0127869071734391,-0.2220191123316405,0.5204432485276331,9.54536994538845,-0.0764760631974262,-0.0172384398640518,0.105706818115172
546,5460,0.0264370977015143,-0.0326083119731842,0.0180874376844636,-0.0128656665941314,-0.0737921037645689,0.4952204229597797,9.70508562248392,-0.0544294296144697,-0.0171281172369268,0.1810937106047414
547,5470,0.0309743821460509,-0.0206747316348293,0.0444205656147859,-0.0245437385485677,-0.1232046988167309,0.4014233419806525,9.569047053563644,-0.0682079374994394,-0.000851337682359,0.1474286989592838
548,5480,0.0393617304862817,-0.0390070353666678,0.0201712818448938,-0.0320593393672803,0.003616616076484,0.4923776265984684,9.56775395170698,-0.0651992302788409,-0.0414471446402293,0.1802498910494382
549,5490,0.0504801140768829,-0.0116917410233229,0.0277355079597706,-0.0122216254349883,0.1726055640186447,0.4205134792981252,9.552588498911105,-0.0332372113626123,-0.0154235690809497,0.1005947603344825
550,5500,0.0463637979045968,-0.0068491863336534,0.0405277241368062,-0.0119354382940238,-0.0637223670957592,0.5302411271761787,9.785944272437776,-0.0301455274611344,-0.0169571681736359,0.1208636961636684
551,5510,0.0261251986812632,-0.024419035531745,0.011572070054703,-0.0402791791792794,-0.0038552344453176,0.4611975529948967,9.36949535663065,-0.0897161729075373,0.0035610702538573,0.1287256080878036
552,5520,0.0332334034371892,-0.0356687542591938,0.036633756623998,-0.0334088261311821,-0.2190146803017165,0.575160574421943,9.219275618003936,-0.0503508130542915,0.0047703032848324,0.1122420070893242
553,5530,0.0300118735612843,-0.0247988379834959,0.0342020633695011,-0.0195600389604632,-0.0080189923960963,0.4348089917941028,9.36691880867884,-0.0732703988644796,-0.0007296804515392,0.1071961853976622
554,5540,0.0160594476948859,-0.0194242038508981,0.0271395319458774,-0.0213410344288573,0.1130655378411676,0.3578268659749263,9.280316425338858,-0.0576569076760054,0.0006361313155051,0.0999157279435342
555,5550,0.0431925205278233,-0.0286902183127052,0.0228569042851409,-0.0236569109389932,-0.0922404006638922,0.3910131510405752,9.20832547757503,-0.0983024589225894,0.0038244783857825,0.154763471274357
556,5560,0.0199904962005685,-0.0350902600500376,0.0086162887021082,-0.0311635346779778,-0.0210245995657256,0.3876419176567511,9.435847279974476,-0.0374105109610125,-0.0046186351254318,0.123782150683386
557,5570,0.0207023351133805,-0.0359836620330019,0.0077083383347803,-0.0156878676861129,0.047937709826849,0.4508435245388585,9.685293333626843,-0.1288805678441783,-0.0204269172630095,0.1904284938496224
558,5580,0.041906306884266,-0.0323648649379878,0.0182278121992791,-0.0043816499101812,0.1989386668934035,0.4190212813540379,9.39634696939756,-0.0693653199154056,-0.0025867448438868,0.1222857496474899
559,5590,0.0171385624074233,-0.0409693296144262,0.0064638564358716,-0.0254574324235254,-0.0249877965143793,0.5538986426269878,9.396609645623816,-0.0939450302313956,-0.0063178559135469,0.1453911956539192
560,5600,0.0256875781837187,-0.0334697189263986,0.0208828721081635,-0.0423535421098217,0.1475104779902013,0.4213618518586135,9.433869188429576,-0.1331320394120117,-0.0049881012107513,0.1178825736080233
561,5610,0.0282233915945456,-0.0441343541631502,0.0060867348405004,-0.0334832724380413,0.0776103689078814,0.4749533311976999,9.17711131114512,-0.0798183407185064,-0.0095972220696354,0.1203132808367759
562,5620,0.0313181220611926,-0.0443960592958322,0.0003139629608175,-0.0270158677245602,-0.0327842934265421,0.338788737369426,9.303683678979638,-0.0345413619174915,0.007850306710615,0.1148398410707293
563,5630,0.0123095509192372,-0.0601668654079327,-0.0096172725888351,-0.038598596709276,-0.0882753026426884,0.3836881311911044,9.451324043755314,-0.0769358447813988,-0.003128503081115,0.1567893243292464
564,5640,-0.0011070854604479,-0.0630171615272288,0.0052052365884983,-0.0609703275619152,-0.0114467786291795,0.5177391853159569,9.145297129930224,-0.1141613718426737,-0.003110554688451,0.1391420106773738
565,5650,0.0145436497343678,-0.0404820412622565,0.0022465250671636,-0.0402184599426263,0.0763253303980552,0.3746076429727828,9.195136951398965,-0.0736775845445235,0.0026569254518788,0.1480306896615755
566,5660,-0.0008411617153665,-0.0457025843960848,-0.0039821452545704,-0.0399178179939825,-0.0555151280023935,0.4249808300635604,9.38364814541188,-0.1001947139483248,-0.0064761272927482,0.1441097243703818
567,5670,0.0134256897114192,-0.0340560554497628,-0.0051669611824995,-0.0545790878595768,0.216887484433229,0.4346317247858543,9.380621301086558,-0.0902610897454539,-0.0367962922559714,0.1818516075563112
568,5680,-0.0067182545972774,-0.0263900607191962,-0.0011997520397401,-0.0492354718481813,0.0591479407762201,0.4162780153891406,9.287153761176818,-0.0755787117319963,0.0023047521211972,0.084291166823078
569,5690,-0.0109964805228292,-0.0635451787062089,-0.0021752641085313,-0.0630278126271826,-0.0168950266411011,0.3937811078125107,8.976766067786592,-0.0859798305044492,0.0125466009156419,0.1758176666856537
570,5700,-0.0089318406642482,-0.0672197276612041,-0.0228186142962977,-0.0590209042669033,-0.0319555012298605,0.2769155667504438,9.185367581777086,-0.1152434561978987,0.0138420981399001,0.1433121777813391
571,5710,-0.0060217710452513,-0.0657872205796865,-0.0184232530860283,-0.0680816108850834,-0.11559162689005,0.4086235057650637,9.26927033026916,-0.0996879254637912,-0.0194658480561464,0.1035092415820358
572,5720,0.0211634852520678,-0.0507409645393886,-0.0040349958054138,-0.0399930898063837,-0.194437589599314,0.5418094276984098,9.10951624355414,-0.085354374152109,0.0178898737422436,0.1153464318637707
573,5730,-0.0136320153726478,-0.0484229074694828,0.0021878943666797,-0.0292197192204813,0.0047606425363584,0.4417338012618528,9.329659866829514,-0.0727502624925865,0.0148711123217395,0.092042293854882
574,5740,-0.0046855443576719,-0.0518189725342783,0.0001137738179179,-0.0475558144880283,-0.056810788986403,0.4312948115336293,9.492452041797812,-0.102878289845534,-1.3891871754295303e-06,0.1341274679181931
575,5750,-0.0106105823795336,-0.0705118412057175,-0.0065343552547738,-0.0571515493993516,-0.0943250003864998,0.3669662419915336,9.472896419997772,-0.1117588506011682,0.0021260174683463,0.1036934087874275
576,5760,-0.0048160226372954,-0.0348892237838903,-0.0259173349456007,-0.0542905369240618,-0.0978991147027101,0.4816216529197888,9.120703068640434,-0.0633429921559158,0.0175558886382833,0.1453738756887872
577,5770,0.0030633143457873,-0.0593762427245409,-0.0197979053285165,-0.055548853075716,0.02705891929993,0.4130283148773593,9.426735015227145,-0.0780705475084696,0.0155492144904585,0.1299801199423987
578,5780,0.0149076575433725,-0.0600500951577671,0.0228880760161086,-0.0522416769144161,0.1363558077819618,0.3781499722523841,9.575492195288197,-0.1210594084037895,0.0003834810311113,0.1348608626440899
579,5790,0.0093624476305411,-0.0473855058209329,0.006730618740253,-0.0540260520517131,0.0155101101316564,0.5127395901386191,9.182872185774563,-0.0972394366071458,0.0178312206052157,0.1417721718543151
580,5800,-0.0011042470084437,-0.0476174735261336,-0.0047281574007679,-0.0433095458774124,-0.0984510976952357,0.5291299995177762,9.365783890428231,-0.1073439799954562,0.0014017287801142,0.1229675493390891
581,5810,0.0033626216723601,-0.0576169957509962,-0.0047682060465167,-0.0482183814791587,0.0125577413562113,0.3373698605421421,8.996474363540738,-0.0679019921653648,-0.0057242830012861,0.101001631873583
582,5820,0.0008972709139064,-0.0511118061435977,0.0022500496134965,-0.054592428601748,-0.0190857335790238,0.4585723340441343,9.191125546508385,-0.1093454985909173,4.390716871811775e-05,0.1681885308559887
583,5830,0.0217821726764056,-0.0410005579824308,0.0074604700694526,-0.0449905022110989,0.0833373035742796,0.3535893132972756,9.51747615373212,-0.0892973743596731,0.0003733102095102,0.1242768082536125
584,5840,-0.0026302571581108,-0.0433119676545239,-0.0062459766954925,-0.0586554122933295,0.0203552894609976,0.357654197234625,9.298526121836428,-0.0513402559476629,0.0104107482799455,0.1047944202836722
585,5850,-0.0160493749853566,-0.0415976645014646,-0.0281858660433879,-0.0598914898145618,-0.1586199568172251,0.6636671629573876,9.215283821759217,-0.1155100173700736,0.0109589679981647,0.1200370372110954
586,5860,-0.0059950925334308,-0.05011316191019,-0.0133562297541197,-0.0564833872025596,0.0514902841386429,0.5523523472565919,9.506324890735772,-0.1055111005618135,0.0017945916210952,0.119638333464624
587,5870,-0.0058595878194938,-0.0415122509843858,-0.0085900671308269,-0.0359895921316655,-0.1726506323628754,0.2828439664648325,9.399609077667336,-0.1167919082592103,-0.0018468302196935,0.104285135260277
