index,elapse_time,susp_fl,susp_fr,susp_rl,susp_rr,acc_x,acc_y,acc_z,rot_x,rot_y,rot_z
0,0,0.0451008542227652,-0.0198825657295909,0.0205280864739584,-0.0132805452257243,0.3595701541639647,0.3613544612149955,10.452909906535472,0.0462690694910306,0.0474696090599567,0.1326528104916118
1,10,0.0322228725624463,-0.0206969676649287,0.050199376157863,-0.0342722385602063,0.2146793380936605,0.5918308568264964,9.740947464260724,0.0753133382918877,0.0519096846705994,0.1111756047132515
2,20,0.0384288873077156,-0.006865808528241,0.0278775327097585,-0.0017458048742172,0.3706317610205768,0.4342549098724734,10.345722693622646,0.0624902529392447,0.0457943079690907,0.1304172271214043
3,30,0.049105932584357,-0.0111882773304982,0.020042536768594,-0.023236296760961,0.2490354222249686,0.4899794301379588,9.448828749415089,0.0653286074040817,0.0534895741807809,0.1611049091775712
4,40,0.0556724730876019,-0.016615306495208,0.0475224166439883,0.0070672835125438,0.3190756221939568,0.4788498323904875,9.909987661278011,0.0769226692842472,0.0553092724304196,0.1260328428802847
5,50,0.0406261587246083,-0.0263323571672754,0.0423866633057481,-0.026746667903571,0.2698495843607272,0.5128940435808516,10.217033537788598,0.0294839742919732,0.0455356466240209,0.1784276507706494
6,60,0.0400435129952499,-0.0263518827628257,0.0408273539149878,-0.0036056655844646,0.2890584721867597,0.4381704160141906,10.424391878959202,0.0240627667702521,0.0439434228766714,0.0966646573683981
7,70,0.0667549460490219,-0.0155046967951138,0.0467084699884034,-0.0076999996932989,0.2764115878864084,0.5413634628609522,10.065172894032562,0.0376532590036943,0.0332178389085354,0.1826930432041588
8,80,0.043403704004396,-0.0102111415877667,0.0415287617349265,-0.0073084728686505,0.0754380698567007,0.4744234224644755,10.225279469764418,0.023116268338413,0.0484590249983829,0.1491562270857995
9,90,0.0497604191926832,-0.0027269231133347,0.0401965371488893,-0.0150324400731128,0.1070610030164058,0.2627582704710333,10.288100476183098,0.0033313700927307,0.0477843285593833,0.1575552418934855
10,100,0.0542887515431824,-0.0071419825105871,0.0568581090606421,0.0005777121472637,0.2772632999091368,0.4734520033431958,10.381950590558484,0.0472150628385613,0.0447476820873305,0.068580268529271
11,110,0.0505825723558528,-0.0192869216719158,0.0311471137546154,-0.0050517250558128,0.2693995339740254,0.542680184265365,9.798398039351246,0.0169491435376299,0.0509347718592447,0.1725380042536956
12,120,0.0574394300758841,-0.0013899043526411,0.045338232867581,0.0040397462991721,0.0530444971922265,0.4082722537509984,10.34695067787968,0.0202464901404825,0.0419695456340591,0.1295518959047544
13,130,0.0468780646618569,-0.0065014087578995,0.0552796010786817,0.0018950789675056,0.4020614552414637,0.4811782231307056,9.599601463461015,0.0319768268873041,0.0380857451357585,0.1232643562869255
14,140,0.0585319264734022,-0.0169044186668502,0.0287692038640801,0.0071754660326449,0.2483876784690847,0.2557345455799307,10.033820906645529,0.0524732578193029,0.0398800989011619,0.1703643298994647
15,150,0.0525179425585975,-0.0106121733885655,0.0472768941549424,-0.0060158157972923,0.2887707095592672,0.5377388292227518,10.163838282486775,0.0439298285356516,0.0494518785867171,0.1171668300591647
16,160,0.0346393396161163,0.0040850652800058,0.0317306444568238,-0.0012915643092801,0.2706253910860841,0.4931752266981214,9.760847826404104,0.0220842729897337,0.0313491257234012,0.1218139624121287
17,170,0.0432366256560718,-0.0257529166981807,0.041022522461535,-0.014015444855679,0.0510533794024422,0.4100886792469607,9.721664786761268,0.0194173304553602,0.038943864024972,0.1445722627505894
18,180,0.0336174203994346,-0.0099434167483323,0.0358157831837746,-0.0130243374791226,0.1950744776845887,0.4924566990302967,9.934391742635675,0.0113351576073686,0.0405662786814226,0.1559876783155908
19,190,0.0421481421534702,-0.0005914360011161,0.0386165055713836,-0.0054909074608103,0.2500025935496371,0.5006623639646606,10.119863343949849,0.0078511258204595,0.0291722900758797,0.1721636867833265
20,200,0.0478571188691325,-0.0092837157580644,0.027066785379933,-0.0042954988438856,0.1388950849348585,0.3638157659682353,9.99950548570363,0.0493673504588991,0.0446011533888948,0.1590232666673668
21,210,0.0268046961807263,-0.0315642431556001,0.0400848803154577,-0.0180539645818341,0.1213674674531287,0.6193896134640476,9.722968901154346,0.0026274568861038,0.0603129854327411,0.0710353588450593
22,220,0.0383676689961421,-0.0089773572851027,0.0370144034994298,-0.0019113241662628,0.3854592922885,0.473438911739692,10.28819469903734,0.0646507885626302,0.0539048815401011,0.1430603870478298
23,230,0.031059136003831,-0.0369714022992412,0.0218783358047775,-0.0060301637139698,0.3407632122187879,0.4369347944230061,9.730256954103645,0.0247041138889812,0.0359960884511883,0.1466838142766742
24,240,0.044612625472664,-0.0211375133559951,0.0425455258860515,-0.0178704085278183,0.0246886725586443,0.4051258667542684,9.952170251918512,0.0264331829812116,0.0301396797732502,0.154531600363811
25,250,0.0316437633331344,-0.0289919847760338,0.0271313844096854,-0.0043339406396336,0.3453012783940494,0.7892523665278772,9.937981931518468,-0.013987533842637,0.0342181332249868,0.1398521272901606
26,260,0.0294208419087233,-0.0109773714104677,0.0303430871536955,-0.0293869051899414,0.3423689407818451,0.3955682617899209,10.014686907927215,0.0010765090527053,0.0286311495683059,0.1565272080552497
27,270,0.0403796354806378,-0.0309121943199295,0.02835345480621,-0.0171587213219791,0.1046069688310614,0.3758166822361201,9.919063691540703,-0.0203987430820231,0.0481499117298078,0.1594782031971101
28,280,0.0419336837518506,-0.0333484587264377,0.0164308256009228,-0.0145687146043816,0.1785821637812923,0.4459090090867846,10.102922131265013,0.0272849248766681,0.0460177587737933,0.1478952906607796
29,290,0.0355490885220974,-0.0298274351704471,0.0326741150351583,-0.0255138957000243,0.2822383582156215,0.3437100253773305,9.996592500936943,-0.0148282085736896,0.0374423539894717,0.1549721858977194
30,300,0.0325817254797026,-0.0321732024585178,0.0479350051647794,-0.0203740874914394,0.0294013925387614,0.4894590117348251,10.23564576246414,-0.0203865795225871,0.0494755184177797,0.1230051342716397
31,310,0.0414230123497009,-0.0038829972537876,0.0595548423922425,-0.0296304089822663,0.3234855140515843,0.4721507688519414,9.825121795769004,0.0373903553192036,0.0583053594204837,0.1774078183032267
32,320,0.0531834481661842,-0.0351914724032313,0.0337025473731031,-0.0331281697745794,0.1459266302726063,0.5092399090555263,9.676839681510543,0.0188069233482924,0.0428896894650119,0.1221686869694559
33,330,0.0314180281275071,-0.0140207002229742,0.0258135865949526,0.0007270312715187,-0.0316089913429543,0.629943796053448,9.857794503937964,0.0187247399056562,0.0372906568532997,0.0988346362778394
34,340,0.0354509535329584,-0.00437840502964,0.0385311377150081,-0.0154805892936859,0.3085009940767784,0.498718430568544,9.85353394494148,0.0241641339395642,0.0440258611265558,0.145751155074879
35,350,0.0248307108515326,-0.0115501416428848,0.0382356464783661,-0.0038997118740641,0.2369685690774668,0.5705253148022416,10.001755415043094,0.0110533093432417,0.0352313369250679,0.1608774972684288
36,360,0.037724439079645,-0.0131764424058934,0.0355347358505569,-0.0219104316897133,0.1406974131286427,0.5257525772072842,10.016241124969714,-0.0022351429641682,0.0269577364600488,0.1173485845971864
37,370,0.0434191968402132,-0.0357253527795463,0.0421581819122145,-0.0033991376482462,0.2093733631954782,0.5349628996302856,9.560413217822711,-0.0004951457096052,0.0415990350600063,0.1309255949523199
38,380,0.0332575289250137,-0.0134497463259293,0.0371382117180122,-0.0250922025271397,0.3488408071291028,0.5426642597861372,9.694823370814598,0.0135252905598589,0.0228232287945538,0.1547450601125101
39,390,0.0396061050648462,-0.0222176094979732,0.0564392094579396,-0.0143896714428599,0.1567104058144735,0.2337102012773245,9.856125637922707,-0.0064866544548701,0.0555048218491183,0.1674356707196216
40,400,0.0353246574209157,-0.0127901899344461,0.0230803105880393,-0.0150357927570076,0.2979110660414452,0.457659192408018,9.974537702067424,-0.0090931070515102,0.0214263897965435,0.1750385141618616
41,410,0.0483176117138278,-0.0037275359356842,0.028267776339948,-0.0121788684837832,0.379294470493392,0.6615851078122394,9.949569957720996,0.027307813694338,0.0576946378152996,0.186953055259231
42,420,0.0516909976226964,0.006069207921494,0.0410719196750624,-0.0175711181322039,0.2500190708003396,0.6050442330191795,9.713262016568509,-0.0155040688392413,0.023080648061797,0.1835804084969785
43,430,0.048969199255872,-0.0178595696942655,0.0413272996801169,0.0104790979955439,0.1815754845800507,0.3924336024539501,9.73209832746985,-0.0326396036148946,0.0395124730720123,0.1584333197784815
44,440,0.0361759440705073,-0.0027933164303409,0.0407627285640682,0.0045731518044949,0.2663726757014214,0.529428312450834,9.956555094804695,-0.034059923228508,0.0105237810267067,0.1336703520463175
45,450,0.0783274537530968,-0.0031779322896959,0.0441038408821556,0.0039915884941656,0.0283745410017615,0.2976138782510326,9.82823339717438,0.0108318539150406,0.0382659520181652,0.1997134561458385
46,460,0.0514307206423614,-0.0168952557772542,0.049985687430309,-0.0079544132139675,0.1192366667098718,0.4205658191694024,10.00331076027763,-0.021970657858979,0.0173637791186928,0.1413662741946493
47,470,0.0589262557896987,0.0137649612658907,0.0374603530034134,0.0082792728860066,-0.0177580316170685,0.4027167090729677,9.7628509894988,0.0263719356806756,0.0442102179100361,0.1592006307637879
48,480,0.051440054268663,-0.0083068233257108,0.0570888605743153,0.0163985714766998,0.0478667550897551,0.414087583374168,9.806694079048732,0.0166936455882816,0.0279256944558602,0.0905125304187286
49,490,0.0474295081458369,0.0257091481293163,0.0643146589838534,0.0041286792148687,0.2507393836264309,0.5572177900666926,9.726894382161044,0.047797598878806,0.0219283884204723,0.1815690743246545
50,500,0.0631617403211725,-0.0017380606899331,0.0540179077877416,0.0056379190573366,0.2476383469539486,0.5087232737719368,9.883718221257134,0.0235828514290629,0.0393599047679723,0.1271420779813443
51,510,0.0505268261119644,0.0026052704420517,0.0507212462595395,-0.0101569355878305,0.1866511520574015,0.4961817466486244,10.131340357598493,-0.0013397431494329,0.0283817984537752,0.1437322828340884
52,520,0.0603389171125171,-0.0011476801359845,0.0454586489972084,0.0072719382969553,0.12742599905623,0.4547035558825836,9.91503619425835,-0.0404462889809269,0.0369433731173807,0.1514070297389465
53,530,0.0572682055808442,0.0091474413815507,0.0475340969153628,-0.0074486448485385,0.2168082962112753,0.5154709998997009,9.510888045023474,-0.0021755777836579,0.031094016587943,0.1542167608605959
54,540,0.0735258907980477,-0.0134726997472295,0.0516237802234396,-0.0105882693815547,0.355184853639872,0.5447638077428312,9.820731289452745,-0.0049690553885123,0.0418181690717856,0.1925187309803704
55,550,0.0343554559815429,-0.0170192923756674,0.0511681747196321,0.0036958592773806,0.2342586984696626,0.4171314881439764,9.529983038853691,-0.0121539332624821,0.0123164143089137,0.1106102843483479
56,560,0.0607969043417586,0.0007778669433759,0.0751611569555805,0.0044878446058309,0.3689585114464406,0.5509671568971823,9.867506640784663,-0.0317742891456883,0.0429995855993942,0.1350197896150111
57,570,0.0432461053240598,0.0049300020946632,0.0512814773215145,0.0047230103192959,0.2021876792730997,0.4175726637126918,9.718326618858994,-0.0230850576627856,0.0281993214074831,0.186413988602482
58,580,0.0530759184657174,-0.0183388741604226,0.0448875911976725,-0.0210028330047539,0.1876761988188518,0.348746886930158,9.772113879538525,-0.0390866121241671,0.028105976623463,0.1348238039813595
59,590,0.0618261580341126,-0.0015088722638262,0.0526024886621104,0.0002057816862461,0.2747803436004635,0.6217595368210969,9.815560037375654,-0.0283937130155078,0.0428100520562899,0.1434721732399402
60,600,0.0435138014779719,-0.0086153908304612,0.0516194535404859,-0.0122178087582533,0.1791814521584883,0.4235711738054756,9.50824812274982,-0.038004695128688,0.0184428825302215,0.1605632282954749
61,610,0.0585398057199181,-0.0057443092105103,0.0652498474884606,0.0058988403529855,0.2548121238011611,0.5273016874058506,9.492704371723653,-0.0095844020907537,0.0313746253213352,0.1533474998563234
62,620,0.0470574754198046,0.0017741714499248,0.0418809471579224,0.0002807670951518,0.2545151194046149,0.4488247809613655,9.651166730678945,-0.0168291454244916,0.0275713677609947,0.110472145614034
63,630,0.0444884752989507,-0.0158865286957343,0.0476534374068071,0.0001043826912502,0.1560383883751976,0.495745810356512,9.47349710239698,-0.0372790989438019,0.0276141120052609,0.0847624644715561
64,640,0.061870425463296,-0.0080036927030066,0.0630715763133264,-0.0070894249991698,0.2303924587095766,0.5161035121664733,9.696533209151712,-0.028306911885572,0.0269050800044361,0.1901339103108021
65,650,0.0482623792217638,-0.0073775275609438,0.0202539186696302,0.0033977251067545,0.0756646519360325,0.4135894686996204,9.364099965417422,-0.0279043761446694,0.0394118051166085,0.2471482467691279
66,660,0.0408265478322831,-0.0377995387905826,0.0571649655773623,-0.0134816439978367,0.1848107660951209,0.4131334628872826,9.440035923956044,-0.014476200353328,0.0427653613852035,0.0981960482096508
67,670,0.0440674965610192,-0.0067675014692292,0.042782448892944,-0.0019197127822493,0.1663449808397021,0.6761443840295838,9.667332608411623,-0.0432743929639697,0.0334086978370928,0.2080865600311547
68,680,0.0292197728961786,-0.0253907620818798,0.0133220131171281,-0.00871358835261,0.1559951575277022,0.6357469845105248,9.630904993781364,-0.0435841412673456,0.0112066905076003,0.1391228150161247
69,690,0.0523275437808418,-0.0246783928351358,0.0253702629295643,-0.0045542983952965,0.2966663196929768,0.615100380232955,9.720224971303296,-0.0482609816188965,0.0346606546659212,0.1139136876047746
70,700,0.0424641491703983,-0.0507106901564362,0.0229987382753089,-0.0134131571633892,0.0767900955072091,0.5399103497499878,9.735923265624017,-0.0371184102010207,0.0342023301088527,0.0984103096087344
71,710,0.0525900781268169,-0.0242447353474736,0.0241826838981973,-0.0218984934628528,0.1476839809593605,0.5502399425922027,9.589092291694644,-0.0108466694521484,0.0177321164183402,0.2013542991671924
72,720,0.0369091145171074,-0.0307135058344251,0.0430622708627345,-0.0309646358877064,0.2280209868635996,0.5704411439925339,9.58141602137946,-0.0334156720308018,0.0209703268211367,0.1227849611423487
73,730,0.0364241599453209,-0.013861010272774,0.0176124580875712,-0.0208922471047055,0.2032616066779072,0.6712214051123732,9.858683707662948,-0.0666272449679296,0.0208917939335742,0.1988203231468555
74,740,0.0264813556283633,-0.033247791162237,0.0459681926596364,-0.0525291851027262,0.30096510731584,0.5919021933713038,9.92116806920074,-0.0343447719071369,0.0341289542748429,0.1459873949478966
75,750,0.0280299005519792,-0.0291976873560187,0.0215653666110321,-0.0282710310723691,0.2335595759585571,0.4255375667877829,9.90984745482521,-0.0166021069234277,0.0212875572632821,0.1331340258231621
76,760,0.0327050753329845,-0.0141877870170968,0.0389325243416585,-0.0018799913287211,0.1103264677337624,0.3850579628782566,9.747668092201115,-0.067293523744183,0.0205544239275224,0.1243622768684659
77,770,0.0224169174931108,-0.041061543267792,0.0192025790736044,-0.0369178606165305,0.0947206321289461,0.4707205916639302,9.78663357200178,-0.0779728043415616,0.013506288422515,0.144638833187783
78,780,0.0152017263464997,-0.0547976750683729,0.0122041135782643,-0.0274200197848917,0.0999741450157825,0.3410317655108947,9.842648693910226,-0.0070341490543396,0.0221871455018435,0.0756852031311619
79,790,0.0286755092660595,-0.035361378587501,0.0213815964109334,-0.0266195366652775,-0.0010624912425273,0.4783543587605045,9.502063084864869,-0.0875810516050212,0.0133304649730074,0.1437332491082883
80,800,0.0087783208579574,-0.0238625143258323,0.0285926972784643,-0.0097918431684656,0.0138250145239347,0.3956397798550236,9.10976312935413,-0.0479736082080049,0.0162898688031724,0.150294635733682
81,810,0.00945364404113,-0.0334974209246792,0.0202914562854866,-0.0274376837283178,0.2131054525646888,0.4841701672458632,9.677176984342266,-0.0481228961339374,0.0219101547755488,0.1140509269459997
82,820,0.0146911067846394,-0.0178744549161341,0.0169616110561907,-0.0164567445875791,0.0018821606927835,0.6912284808940412,9.616655546910588,-0.0378916572961948,0.0241078529916056,0.1808326817176551
83,830,0.0169074444512609,-0.0431972015038085,0.0136375922215489,-0.0127233561656095,-0.0077855699132296,0.4590871153452884,9.569455984670247,-0.083851956390634,0.0139502180646593,0.1893683748086892
84,840,0.0276646625028392,-0.0342900702569855,0.0277832708197416,-0.0411590283559524,0.1045179972415557,0.5126892938315272,9.495672932009828,-0.0314101029668718,0.0169460599093308,0.184753906787241
85,850,0.0376802986294696,-0.0401635283996721,0.0164140022706188,-0.0340572248133572,0.2507117960759301,0.5033755184232661,9.5081961257375,-0.0597437042737293,0.0165327858540136,0.1332433063100764
86,860,0.005410373511254,-0.0204446253831763,0.0137461518616253,-0.016930956999093,0.2884380540033767,0.4073582430418957,9.523085486016573,-0.0189536201441565,-0.0133555262854042,0.1170037198210641
87,870,0.0177620854457868,-0.0484680024107299,0.0074636937043604,-0.0452701983715247,-0.0099146099952836,0.3085976274167608,9.089883357881112,-0.0527716170745484,0.014514148154743,0.1377479139440043
88,880,0.0301403069494138,-0.0364603831971258,0.0298625983455644,-0.0329133422260123,0.134008900978217,0.5087898372908161,9.547701260893064,-0.0801568330415887,0.0137680982786492,0.1101750962476721
89,890,0.0421605127993893,-0.0380650980351859,0.0142414384833036,-0.0287671994778153,-0.0806635273212057,0.3655227583314992,9.459844075559907,-0.0394615243870441,0.023034927862441,0.1543034904259101
90,900,0.02283242997155,-0.0269148569044758,0.0106947695289249,-0.0264291411298362,0.0273750251213381,0.4375561334716564,9.564237509785482,-0.0653378725173789,-0.0026590067052124,0.1379193435972052
91,910,0.039659578659167,-0.0344180563464494,-0.0004287407930641,-0.0462206092512286,0.0144776776323092,0.4906338522776258,9.109146980628148,-0.0869302762166728,0.0030665127771272,0.1283218555343359
92,920,0.0088202528647984,-0.0055263251504106,0.0202151538455756,-0.0307431763842859,0.1499358965978657,0.550337831422491,9.658161428270931,-0.0755211808246567,0.0165713605768434,0.1637718618188154
93,930,0.0393171323204937,-0.0194993549844308,0.0168516339104114,-0.0313333004208211,0.1923977443846042,0.4239570785528502,9.421426404981617,-0.0374615088143609,0.0256153975078782,0.0946750290658966
94,940,0.0327275397571759,-0.025531309949981,0.0278918692827739,-0.0189593655754592,0.0916891873210381,0.4293071585326603,9.53477642583102,-0.0689480314958486,0.0095135822800394,0.1408765347188594
95,950,0.0309947985661477,-0.0464649437029094,0.0154449737817264,-0.0452227338738119,0.0827894738894927,0.4839245528525325,9.225705156795213,-0.0363419901337243,0.0220650182358894,0.1139718673431748
96,960,0.0299275786237541,-0.0416577961468564,0.0365822589849288,-0.0288454012414861,-0.0600358527372122,0.4714273050327093,9.436153403567111,-0.0736597671697015,-0.0063271842414755,0.1870646248422533
97,970,0.0421845105851593,-0.0314602610481687,0.0349492486524829,0.0033784059702221,-0.0851777591008627,0.6573372492092613,9.539834548223284,-0.0457951973596687,0.0185073709482167,0.1232156282924248
98,980,0.0360975158318834,-0.0615356668783838,0.0131670066147994,-0.0120472984431137,0.0991850435872953,0.5468480723254657,9.254951128062064,-0.0741848426378907,0.0033074987716487,0.1372820802829802
99,990,0.0358834688928291,-0.0408804953052057,0.0284069567221174,-0.0191474218162269,-0.0456214650474783,0.6023036324722413,9.606187543839932,-0.0778086820852831,0.002265218958411,0.1101694387290013
100,1000,0.0506818794622887,-0.0378924909410763,0.0433733953139361,-0.0179212989909144,0.0925060900770663,0.508841455040462,9.656269197635636,-0.0685176872002209,0.0074708838938564,0.1030774959297078
101,1010,0.0436447468908851,4.45408035914599e-05,0.029533401096065,-0.0130949029037106,-0.0191798095970113,0.5447611001497854,9.479365806666634,-0.0546286120158553,0.0103302016860838,0.2096643961844849
102,1020,0.0332469379692107,-0.0243553005897436,0.0362322266327219,-0.0105680833305671,-0.147817652415143,0.4042352482492857,9.597419455362076,-0.0935215186613228,0.0251339876891477,0.1639838199953062
103,1030,0.0136463229769651,-0.0376021533651489,0.0206665384791474,-0.0358532881086154,-0.0270619344664778,0.4484686088063139,9.296061799687918,-0.0491447859862967,0.0158632304129244,0.0921643112563931
104,1040,0.0276758189500636,-0.0317024522656537,0.0403813980066101,-0.0189388367430607,0.2644222126861667,0.3803195959386203,9.480150867515595,-0.0611576100655959,0.0206491005688642,0.0982529752134538
105,1050,0.0388863613260472,-0.0144189761765978,0.0308562600199411,-0.014618442898113,0.2560069104149797,0.4802184868310097,9.269348004221564,-0.0879535893690592,0.0311364396348674,0.1185870237435101
106,1060,0.033726338227331,-0.038781329378172,0.0197956559527556,-0.0351904110434326,-0.1384926974929575,0.3819147223794117,9.483405096842674,-0.0676802015872677,0.0098476311555467,0.1436961488504829
107,1070,0.0376765555911357,0.0024855974116323,0.0237233776040192,-0.027276815279161,-0.0079558095672658,0.6064056439948525,9.087001655674598,-0.0472992378099686,0.000969108110821,0.1489682255121175
108,1080,0.0179633842714453,-0.01395371423422,0.0229630295859205,-0.0432809007296191,-0.1326823496003957,0.5151822846701336,9.737354218082402,-0.0618035304378117,0.0184736403548735,0.1271483111206089
109,1090,0.0191044098973015,-0.0269446590370888,0.040914218339994,-0.0220765120513635,0.0610107363421624,0.5273374833875258,9.44534063911032,-0.0573485765188486,0.0146794582597037,0.0709428024766092
110,1100,0.0328870523693879,-0.0137098582970855,0.0326753341543476,-0.0336187264992688,-0.0667275954883734,0.4846453517904593,9.317789402459146,-0.0745302352077721,0.0229458029495025,0.1606743381973969
111,1110,0.0132678205680828,-0.0336102631338094,0.0457288330255177,-0.0122252975082336,0.210145136848425,0.4890573752918777,9.427148181544416,-0.0711422349982028,0.0030340526349768,0.0986962616336534
112,1120,0.0079852251210413,-0.0450989578428382,0.0146058344266576,-0.0334328305971754,0.1518999966055876,0.5033036121628157,9.19447852778429,-0.1084527806235775,0.0053690564292382,0.1164769436484932
113,1130,0.0205592639765603,-0.0234653177146042,0.0367193959417084,-0.0301982710064653,0.0065922871248468,0.4820158368533634,9.064208031169809,-0.0819387300367362,-0.0171614590566424,0.1241537983133177
114,1140,0.0174773573937674,-0.0303851686978413,0.0097406107765279,-0.039932141088242,-0.1605112249061719,0.5309502377315718,9.549211557009412,-0.1096174179002875,0.0104735529551581,0.1534150404015345
115,1150,0.0022445861587808,-0.0405660611946628,0.0199576831423391,-0.0496581961919817,-0.1443612597969217,0.5684301779524126,9.615583545320296,-0.1001050255391755,0.0058766640632596,0.0661595474676014
116,1160,0.0191555632119734,-0.0309280154806875,0.0144245568724109,-0.0254462142565665,0.0592532364005426,0.5046398734416027,9.49331181866403,-0.065196580156873,-0.0141027388644974,0.173037796990634
117,1170,0.0027206494194205,-0.0479751889985588,-0.0069708306020827,-0.0542674691538055,0.0791618410335495,0.4040011986816993,9.57618219873468,-0.1072002862664947,0.0097581620426178,0.1040292299248382
118,1180,0.013682543880707,-0.0414313651903108,0.0008858796536986,-0.0484040804700915,-0.0103586191793984,0.4017830730141327,9.2437815517086,-0.0343668246857047,0.0148762922323155,0.139728012086978
119,1190,0.0109462590952242,-0.0322532553358173,0.0286646160736943,-0.0363998093953552,0.0391003022757375,0.6521388174089296,9.407625804397483,-0.0471002377336317,0.0043952208581506,0.0870616071942919
120,1200,0.0061221556889278,-0.0467118956016791,0.0035198025475575,-0.045483283631849,-0.0506113414393317,0.4589767844308138,9.446730600919706,-0.0869077769478086,-0.0195582677384533,0.2058731543641583
121,1210,0.0091722430608376,-0.0360483376880287,0.0083819935620782,-0.0110586174970208,0.0219088531605966,0.5283569498923233,9.348260385520623,-0.0768399787693768,0.0140024414669697,0.1383305028397594
122,1220,0.0010027674532094,-0.036277409971692,-0.0028634162558416,-0.0324958433474049,0.0162783096812658,0.4561138395368069,9.463890825417506,-0.0726396187357658,0.0007274018897772,0.1210495257628461
123,1230,0.0041720080642754,-0.0556674837098867,-0.0171604877359781,-0.0384899338624012,0.0929841780700393,0.3758903383866555,9.465665034719397,-0.1045297800237877,-0.0011461568923564,0.1409608589134945
124,1240,-0.0111076968876116,-0.0511416139117736,-0.009531025603926,-0.0520671754169246,0.0287359851062604,0.4354201676054307,9.379459466531706,-0.0490319088823219,0.0008326179253471,0.0777692676522765
125,1250,-0.0003646407958783,-0.0604958081059498,-0.0028206507086426,-0.0629005849167135,-0.0134447844043767,0.4785339932818018,9.474482028674815,-0.1346299323611867,0.0031323816708337,0.1198582078790872
126,1260,-0.0067858195132572,-0.0594980944555613,-0.0150136307902201,-0.0494822718997267,-0.068149761050082,0.4056467713321739,9.244113106155242,-0.0591597841221562,0.0077298152681923,0.1308702119155696
127,1270,-0.0032663666187886,-0.0447764743859677,-0.0047802676776389,-0.0325319999336819,0.1783010653162662,0.2968351331725904,9.584190348801306,-0.1041904302386788,0.0049539686195753,0.14255124215328
128,1280,0.0181435355546221,-0.0515930588926427,-0.0118454998021405,-0.0403818984662196,-0.0392200666863873,0.3008525092530869,8.978138671856941,-0.0860428127904338,0.0172086815575593,0.1281603633412005
129,1290,-0.0219984227596173,-0.0475639700191705,-0.0112607436654922,-0.0273788668580741,-0.013576129188251,0.39592279375594,9.581933642235796,-0.1232946644803608,-0.0100126229620076,0.1613471034809305
130,1300,-0.0183211739202883,-0.0535765991812558,0.0039795258632703,-0.0296427188362386,0.1078878921068273,0.3358950184580715,9.070570042845407,-0.0805649942926524,-0.0149306946879909,0.0452762487963531
131,1310,0.0015372805806771,-0.0637954970603523,-0.0195985510216986,-0.039986716100142,0.2605977008082182,0.3993273582070709,9.335372389891877,-0.101403696186904,0.0041974928188624,0.1356685357782338
132,1320,0.0066239260085293,-0.0630001370282172,-0.0196393476480706,-0.0466242660884756,-0.1010304681316771,0.3811114855633636,9.366393863659288,-0.1179020110287537,0.0043738533542429,0.1445587606755142
133,1330,-0.0021172834022039,-0.0640375898327584,-0.0068623354629807,-0.0534032479039734,0.0701403930599444,0.2955297504837711,9.412685883986468,-0.1025001199215462,-0.0199650005613714,0.0769812078115711
134,1340,0.0145915213337736,-0.0397098728904031,0.0162448367858849,-0.0492935140758722,-0.0448466662758623,0.5253442605925004,9.284716234480506,-0.0633198758231412,0.0003973865849198,0.0788115854485156
135,1350,-0.0265365156925199,-0.042230439925723,-0.012826631581533,-0.0544241644826648,-0.060635330385064,0.3097988364163898,9.457364218011156,-0.1058658601081397,-0.0198342472949799,0.1248318072888979
136,1360,-0.0040235015827562,-0.0560027019772226,-0.0007323649395208,-0.0317161073303975,-0.1507261053476651,0.4497818259826897,8.934556675272626,-0.0845682247337352,0.0004642260530998,0.0666520207903613
137,1370,0.0051695506225465,-0.0356343174152498,0.0087969973852871,-0.0466129844097655,-0.0011313941394505,0.4817070494288455,9.223087493597584,-0.0994794355598416,-0.0036253459797919,0.1655023944122047
138,1380,0.0073528896727749,-0.0483491151696248,0.0161896007383283,-0.0447767560664638,-0.1205817710449217,0.3503749086964814,9.196753302745684,-0.0981971002235394,0.0061522123969339,0.0722444403918672
139,1390,-0.0014505596885906,-0.0646738659607207,0.0028815826116594,-0.0350576226871106,0.1370699878621669,0.3380820140949789,9.098177447698395,-0.0799634242672934,-0.0099535073641705,0.1124791185812254
140,1400,-0.0049767001259368,-0.0653338708676293,-0.0025787712022526,-0.0441770074494292,-0.1058787583370544,0.3234229950466311,9.198030013474586,-0.1117223995872661,-0.0065039310931581,0.1532187897553126
141,1410,0.0178334139492892,-0.0606299624104777,0.0133546032587109,-0.037641112714816,-0.0777357390038579,0.3763799634064759,9.47921039320348,-0.0740859656524938,-0.0339843991358622,0.1241621552824264
142,1420,-0.0125696388494644,-0.0525379975798697,-0.0092160241451789,-0.0384656415228673,-0.088751368169478,0.4368198825460686,9.071687171726657,-0.0947922802747291,-0.0156151837218036,0.1178582395513707
143,1430,-0.0190147092586196,-0.0586818324871656,-0.033150806567429,-0.0610364274184688,-0.0095912044946409,0.4423075473220317,9.438684436302744,-0.0586354739400986,-0.002684448355208,0.1282768622386161
144,1440,0.0042548498559824,-0.0741934881708395,-0.0045967272604617,-0.035262912482261,-0.125309286173566,0.4864678378684706,9.571723782291158,-0.094513120125218,-0.0173545375627155,0.0922613424897752
145,1450,-0.0026051981731024,-0.0407985943650849,0.0116311266419994,-0.052528577711832,0.0379475125313441,0.549265142878129,9.54022376674694,-0.1114623791085381,0.0023341974230058,0.1141184513456917
146,1460,-0.0031567295524405,-0.0309753835941732,0.0166798898470629,-0.0424426848192867,0.02403032843192,0.4191064746116237,8.810391251380086,-0.1107152421239735,-0.0136602483974551,0.087552959897129
147,1470,-0.0115202140680426,-0.0454610569459742,0.0091041432660889,-0.0395693633055464,-0.1446295169177969,0.3482126248305122,9.2409763881411,-0.1007170990794709,-0.0194598641481572,0.0323160142983672
148,1480,0.0123979400309217,-0.0273961737751507,0.0049272271243966,-0.0246567841743423,0.0143311090150953,0.2821874039300964,9.811795503366358,-0.0737071209656959,-0.0168861636287479,0.1282063246611065
149,1490,0.0142483489480295,-0.042005253172519,-0.0112270190650836,-0.0455685541441285,-0.0627094320298364,0.3874253915273851,9.240861873508631,-0.1033896243444108,-0.005411634388659,0.0859578537361786
150,1500,-0.0034934767853812,-0.0403666867634285,0.0143910222603171,-0.0245312170621968,0.0298833064697883,0.3783221296874993,9.189151300852307,-0.1107479262334052,-0.0110936595234529,0.1623197445403406
151,1510,0.0071154281218955,-0.0277277186195737,-0.0012829091343576,-0.026356933081598,-0.0560106906076762,0.3653965858132989,9.460168419759263,-0.1289787988663638,-0.0145836103162552,0.1348093319058227
152,1520,0.0048116348987988,-0.0210752846726975,0.0083075310877439,-0.023943092114709,-0.0403792449220198,0.2217297740414102,9.504177371055432,-0.1049615854620016,0.0032127233340773,0.0859648995160345
153,1530,-0.0001346236776535,-0.023724749540012,0.0022992502202599,-0.0250350171794772,0.1179553311595944,0.3421360617877215,9.19774911193034,-0.079211267893272,-0.0166476412607209,0.1013001578981218
154,1540,0.0213693466493661,-0.0225221436592054,0.0126327166473771,-0.0154781738565069,0.0033733525585049,0.2396019257371534,9.424640309554444,-0.0938671149958975,0.0035110464271106,0.1322129465387868
155,1550,0.0004247364348069,-0.0496635217378536,0.0199573798984695,-0.0076498766845157,-0.1695679318857096,0.4210049406213996,9.211273783009265,-0.0829001146363813,-0.0164199129387699,0.1424672472638714
156,1560,0.0104646163177158,-0.015449151173105,0.0175348153299117,-0.0365723588059402,-0.0606211185879992,0.5001745654581048,9.129317134094537,-0.0782128654536789,-0.0225445980270431,0.1511555683812468
157,1570,0.014579745723366,-0.0242540740171556,0.0140506521908265,-0.0135096341367247,-0.0162284391153414,0.2102915307943882,9.268702010000936,-0.0564139796632387,-0.0211323130763819,0.1567344225702927
158,1580,0.0010808827336984,-0.035621294917065,0.0013256117812545,-0.0201282264113239,-0.1454622154248223,0.3096942801630242,9.349241533549243,-0.1236903856251694,-0.0249878124591035,0.1375675622494735
159,1590,0.0240214304918986,-0.0296264184004218,0.0192952365977741,-0.0269384574049313,0.0273094912748438,0.3653348314048822,9.680610402601408,-0.0904066877462392,-0.0268589531100633,0.1319023008620921
160,1600,0.0138217560940793,-0.029033060361212,0.0117091039508747,-0.0423452827567283,-0.1237557537357649,0.1880927871573313,9.22684947150242,-0.0798872488717401,-0.0141775384805515,0.1051141601236936
161,1610,-0.0042186966126754,-0.0590031918339951,0.0041767663326998,-0.0488616526121036,-0.2422454840914875,0.2886633559029166,9.092904626092524,-0.0505751663636169,-0.015988736110455,0.0497604229137581
162,1620,0.0198498946644102,-0.0251202317743358,-0.0119136280703172,-0.0406934375578742,-0.3260151582748469,0.1477145082357112,9.33005661622464,-0.1227970193100649,-0.0095592818762407,0.0428067557960213
163,1630,0.0063206204578654,-0.020408482337665,0.0177333064754851,-0.0350731143669841,-0.0271122058146191,0.1797283799056294,9.225381665715975,-0.0797087876061947,-0.0254121708766742,0.0868083333695394
164,1640,0.0129366498387127,-0.0161656998731328,0.0191791088475054,-0.019012717171615,-0.0978558620560457,0.3163152275562848,9.585109722999707,-0.0952801764532229,-0.0237110746885729,0.1065825696303767
165,1650,0.0101560737110231,-0.0348396748378701,0.0216088853354986,-0.038110671781266,-0.0907489538266252,0.5214972941549764,9.33495038234773,-0.0829528960398711,-0.0191549703017641,0.1132823004098852
166,1660,0.0052683366588893,-0.0449533253385876,-0.0013293779428872,-0.0302493691517425,-0.0014520491202616,0.237088538525439,9.65024657140976,-0.0611969623600355,-0.0274638477190389,0.1461017862204807
167,1670,0.0005869405018185,-0.0308414744138387,-0.0102748906543312,-0.0245316834040113,-0.0919477737428322,0.513463728362187,9.354127348311852,-0.1102247877696624,-0.0087243922623921,0.0694934976363897
168,1680,0.0213478560992623,-0.0311303194753942,0.0252744520323666,-0.03111045761559,-0.203069654154181,0.439035934810594,9.572904065008764,-0.1077380715250368,-0.0166034774570355,0.075335291006918
169,1690,-0.0076519818477856,-0.0407811826566444,0.0110923412933054,-0.0431061933593147,-0.2396400428884992,0.390192411066478,9.428821123271096,-0.1083831321109874,-0.0176205774536303,0.1613613631888931
170,1700,-0.0006316797516294,-0.0449156368557283,0.0087755577417447,-0.0456103934396466,-0.061674694114914,0.1271955029673794,9.103302873289,-0.1153835401889456,-0.013379775612176,0.1445988547742488
171,1710,0.0053264530614707,-0.0504594388847076,-0.003630934555917,-0.029627758707109,-0.1859677952278448,0.4878406128898374,9.408682579246294,-0.1074385895140594,-0.035128772845309,0.0998214117465259
172,1720,0.0081398884662446,-0.0242599688653515,-0.0136683211597848,-0.0280290813839607,-0.0629541541110455,0.2242880483398338,9.058431405045498,-0.1168178998917681,-0.0184212971681088,0.1124405285974871
173,1730,0.0024896843859997,-0.0432815773102519,0.01370579444536,-0.0158505092665951,-0.0231964432369806,0.3397786493360765,9.194453871012517,-0.0530158138795894,-0.0001308566064382,0.134259838730135
174,1740,-0.007473236669792,-0.0309869330243418,-0.0140337720268998,-0.0317062003868539,-0.0986132131959285,0.3548473532466429,8.96061394788682,-0.110837256771337,-0.0300303149888494,0.1641069042380106
175,1750,-0.0203146476401651,-0.0393335740120391,0.0042046007071462,-0.0306450057140893,-0.0181822520741635,0.5852159768323134,9.246894233514215,-0.0686057381976422,-0.0179414725896538,0.1048434187195068
176,1760,0.0075819470377351,-0.0428976843328053,-0.0145062862684729,-0.0498147392968764,-0.0145404342788988,0.261933512135743,9.301399270369377,-0.1216547527072012,-0.0283255944002467,0.1132215906738277
177,1770,-0.0108081031932401,-0.0273733510941257,-0.0069498648954862,-0.0314300346768331,-0.1815237074872392,0.321191322850745,9.018046949766877,-0.1279830036425311,-0.0223648061535199,0.0904415676586904
178,1780,-0.0118394105798829,-0.0456453057121734,-0.0014545253959817,-0.0257708484303001,-0.0226276540075989,0.4960263080370101,9.151288246166946,-0.109275869457649,-0.0232974577170087,0.1319687201461833
179,1790,-0.0068932204226509,-0.0449604599698763,-0.0132618184674624,-0.017607247394142,-0.2121340488748171,0.4111259797696895,9.509753620494106,-0.0852999458854205,-0.0308079182337875,0.0734032559030604
180,1800,-0.0176778815246712,-0.0623989530433728,-0.0011266466507984,-0.0393330308085884,-0.1989043133871617,0.3604914131127746,9.316806252640946,-0.0746545721456299,-0.0160571199088008,0.0608742863327432
181,1810,0.0027104215471592,-0.0432848670512226,-0.0083989445722255,-0.0479214173740963,-0.2339428085440446,0.3896617394877255,9.135671757585062,-0.1081181574497192,-0.030413294399494,0.0999733643605139
182,1820,0.0098921208878892,-0.0426585613520188,0.0040360888828002,-0.0405843378963325,0.0796490345022326,0.445165370416384,9.38087634963302,-0.0973480780463135,-0.0280713329076718,0.0826011723026321
183,1830,0.0060361160546626,-0.0244156865943583,0.0011247138674668,-0.0474851489403368,0.0003251670187482,0.4414827030050944,9.105727388369605,-0.1122429333675943,-0.0067786397858816,0.0925215563835228
184,1840,0.0146260332556379,-0.0237786744091809,0.0068642354316633,-0.0191512043947212,-0.0318797333081664,0.4707646811776145,9.651578161698207,-0.057168390524875,-0.0234778372184929,0.0849568966840042
185,1850,-0.0020339464261144,-0.0246100301799238,0.0030200981803674,-0.0322206612113471,-0.0319950163669303,0.0989022117667323,8.957683244868994,-0.1427907293832253,-0.0357775747738193,0.0439766898279053
186,1860,0.015719331686482,-0.0275073897160611,0.0243483483528113,-0.0216255079293808,-0.0997012844705985,0.1631137560407987,9.179675774488356,-0.1241721101138404,-0.0333779201318381,0.0265981411296589
187,1870,0.0048539136286662,-0.0451561064770208,-0.0054938719267961,-0.0181406331102352,-0.1372751269690539,0.2781716795751778,9.25129999278133,-0.1118350369997438,-0.0204386412471428,0.0855591562920156
188,1880,0.0112205088669894,-0.004649091277065,0.0106959828012385,-0.0137931710606571,-0.1295521514164051,0.1330718234773796,9.71933223838454,-0.0968856066931938,-0.0260786678244054,0.060641288725271
189,1890,0.0227999383325447,-0.0289982866664852,-0.0005305951286455,-0.0166490173988987,-0.1798872088165091,0.5531950667220082,9.54258689060972,-0.112966174521356,-0.0189385100164944,0.0607500963957152
190,1900,0.0042262135021437,-0.0323049604091145,0.0046630524892517,-0.0219413211776844,-0.1675224521398451,0.3604990632371742,9.2667094771436,-0.1135586112027371,-0.0357598349859533,0.1450021744101213
191,1910,0.0058139052199014,-0.0179182572085879,0.0071600462936623,-0.0230929558105392,-0.2337959500226966,0.272409773198724,9.41761667758929,-0.0991377998356649,-0.0194759772076232,0.123695675859855
192,1920,0.0265244014417303,-0.0025143519118177,0.0042888398711693,-0.0110839321943125,-0.2152504477795323,0.3362436996547795,9.640844953744937,-0.0954029962572359,-0.0358003275413019,0.0702107869838652
193,1930,0.0045496884588684,0.0045316611216944,0.0158428875240504,-0.0038297560908928,-0.0338516934811037,0.4553065853243999,9.222564136960449,-0.0964339376012317,-0.0459806462769736,0.0495668262032086
194,1940,0.0330370070841043,-0.0005995786652936,0.0345576862850357,-0.0044748921168131,-0.158969935892401,0.2535962434391143,9.31181660269032,-0.0694952682480307,-0.0462325551385266,0.0367997085963366
195,1950,0.0089782688659257,0.0017135374811317,0.0158751365980633,-0.0182545518500934,-0.2428045424848428,0.3038490187628704,9.104064898611536,-0.0848137706046498,-0.0265323456843496,0.05889868088107
196,1960,0.0406426201254775,0.0002070126038307,0.0321062813882757,-0.0011180198632276,-0.076774429002985,0.192781480965712,9.225247394712422,-0.117561728462876,-0.0245412900959495,0.1169686181892516
197,1970,0.0292049030733945,0.0001469804458361,0.0353936479452867,0.0018285767607312,-0.2358115566965852,0.2739410690534438,9.150974878614482,-0.0904774033079477,-0.0336813356629979,0.1300567197762938
198,1980,0.0166936137327922,0.0030575834489846,0.009747015145021,-0.0208688136421816,-0.3553158622882151,0.1700978240510921,9.440248510941544,-0.0985362447900829,-0.0469790005520579,0.1115966798604432
199,1990,0.0246571886019951,-0.001970949560754,0.0186178641136511,0.006496265043919,-0.3326229488305522,0.2565611093097681,8.85722592319616,-0.0773751510356549,-0.0266649295395161,0.097399657448172
200,2000,0.0182433342419271,-0.0059411077661408,0.0324184381395415,0.0140858512781279,-0.228865638056281,0.3951841148011613,9.444295907240964,-0.0939703682219263,-0.043420998020443,0.0234743172148785
201,2010,0.0278933152066402,-0.01661996845878,0.0325277060066849,-0.0079607914024372,-0.2618238770138655,0.2145891287653991,9.44025404705807,-0.0585484296645288,-0.0357836728085783,0.0567212971059103
202,2020,0.0549805996954099,0.0230659308454255,0.0232507219840905,0.0045004970533129,-0.198772780875479,0.1939567792941454,9.800564544841682,-0.068314611212853,-0.0518197928367811,0.0899404068544894
203,2030,0.0363179172289161,-0.0018644683765018,0.0294837446054293,-0.0329794952142822,-0.1624233998910113,0.3975642508310803,9.349913325541158,-0.0934676220925501,-0.0140324706266507,0.0480981535481025
204,2040,0.0292487361053124,0.013311114656263,0.0438390556781123,0.0120142436525731,-0.2210463539454844,0.1236926514974783,9.513127707149817,-0.1055871619000253,-0.0238588850158721,0.0885513541013488
205,2050,0.0475442742106624,-0.0074534184977003,0.0225005780495023,0.0300775755102109,-0.1904058662770534,0.1712686082607091,9.596739138487148,-0.0761801409450362,-0.0275304962226366,0.0984596893473538
206,2060,0.025036236527021,-0.0242382130534203,0.0096520830007462,0.0032259032671635,-0.1689752590745908,0.200428715367715,9.483546034996277,-0.1171763370538399,-0.031639818393496,0.1072272105438727
207,2070,0.0190289612269683,-0.0224512902343387,0.0124292470664029,-0.0024229281912284,-0.1015365028724883,0.3217563159437594,9.14192439354457,-0.0843194988055608,-0.0278616230267218,0.00495089733585
208,2080,0.0385328783819524,-0.0147188938083108,0.0224375735907074,0.0050877324450192,-0.2175963763261786,0.3621370554126144,9.326529708337214,-0.0848336902642806,-0.0252510436314277,0.0855211860450153
209,2090,0.031489686585946,-0.0112726972015939,0.0083333710077662,-0.0127569294795454,-0.0615492480906913,0.2703569969642587,9.30544713171744,-0.0928510409173737,-0.0345604996782829,0.0821570156177756
210,2100,0.0342499996944983,-0.0046777613772298,0.0337824509432666,-0.004049263915515,-0.2063357480756003,0.1699128704230724,8.99777317694304,-0.1031267135442498,-0.0435200572293046,0.0327870013851295
211,2110,0.0308570006304237,-0.007810387527166,0.0131666166736878,0.0174260529824043,-0.2554192657281016,0.1380727551137769,9.468946883098738,-0.0906550168043013,-0.0342974826634021,0.1184236748284955
212,2120,0.0174548769076337,-0.0013040402763576,0.026611099397836,0.0126760285065606,-0.190510701786052,0.1710037122209074,9.723357910789352,-0.0598224372516635,-0.0331822379330973,0.0938371200859803
213,2130,0.0242957711525288,0.0034665214368655,0.0159108320342688,0.0035665375915218,-0.3305463246053668,0.2362604250491546,9.172152877149315,-0.0967457296519592,-0.0393815788558508,0.0848882967351419
214,2140,0.0439637651748681,0.0102109795114233,0.0232635119829899,0.003203033279375,-0.0962397113761449,0.1331941798747798,9.142464656922993,-0.0871805250035275,-0.0533463300332242,0.0176356367878416
215,2150,0.0235809130263534,-0.0053631763941889,0.0086426895336343,0.0137773735938803,-0.4967221029219114,0.2269802649121456,9.184983067642904,-0.1068319439514726,-0.0414854554866783,0.0608005941110492
216,2160,0.0250207187135632,-0.0018215570316256,0.027319359630591,-0.0053738350670636,-0.430908307636235,0.4806211222691179,9.217302005140198,-0.1004695732944022,-0.0213483970184131,-0.003997234495446
217,2170,0.0367066577463543,-0.0077342453719905,0.0254138305351758,-0.0043882800287147,-0.3096646514927527,0.0229651996258723,9.252688428695931,-0.0514184481706912,-0.049555019172906,0.0953134645303157
218,2180,0.0145519680895592,-0.0007579315992945,0.041088474897914,0.0148721800767902,-0.3124268238318227,0.356251766056594,9.384978051790997,-0.0647761375084862,-0.0425256880696207,0.0615539630616446
219,2190,0.0126337452414131,-0.0007607318410424,0.0290093349958627,0.001550220965308,-0.2123090856913882,0.1888878630250135,9.59811025003204,-0.0454780842892346,-0.0419307783939636,0.0090065872025759
220,2200,0.0147100417324906,0.0173358544647416,0.0248095588051504,0.0087774391044316,-0.1868803304959713,0.1633963995028818,9.248212170903496,-0.0979132035134109,-0.0450964200914516,0.0810260778102901
221,2210,0.025677923001415,-0.0023799634617341,0.0170005571310599,-0.002340649711803,-0.3204119440093798,0.1529659886952382,9.422123533932316,-0.1104076309158966,-0.033167850357337,0.0208780031811775
222,2220,0.0443339034298068,0.0062074177236817,0.0323488956329601,0.0169246426035507,-0.2234613168393777,0.2155799567908831,9.242392633812075,-0.0742132930439984,-0.0198190377016552,0.103041360741318
223,2230,0.0280375784209342,-0.0056956448122342,0.0180380694787953,0.0044844159816777,-0.2681918682189207,0.3244586420701444,9.25725353634091,-0.0947602198148137,-0.0393489373830359,0.0579944436532025
224,2240,0.0243412165890235,-0.0043037316387102,0.0229016411112418,0.0047182704489622,-0.004690478871559,0.1412273205434146,9.190234606414467,-0.0648828562389155,-0.0509191544680404,0.0334796462791326
225,2250,0.0303681106659038,0.0055463155684875,0.0287984220529421,-0.006918876762685,-0.2465655479814574,0.1499899842947706,9.701831159556814,-0.0769070526283908,-0.0403669857374748,0.0580104277957849
226,2260,0.0251722494811267,-0.000460909986448,0.0161465070014683,-0.0146371369853759,-0.4817852966872715,0.1452228296671468,9.427214947461144,-0.0284122742130631,-0.0395052158188121,0.0414436240480999
227,2270,0.0278535633249534,-0.0102651995055408,0.0103723324217122,-0.0039035443870543,-0.3048932992400595,0.0601316713694052,9.447082747693022,-0.0890396245952141,-0.0561598743661084,0.0227434738789301
228,2280,0.0066410950388922,0.0004141597853333,-0.0074072594604804,-0.0160376371051122,-0.2238026942694782,0.3795540823030491,9.494657295451944,-0.012854233938024,-0.0408737150704929,0.0665567179907865
229,2290,0.0102811345547248,-0.0131772665581905,0.0107925565708886,0.0023376972378555,-0.225889984121204,0.2110911684966913,9.513852281138908,-0.0657751537603964,-0.0312360294783256,0.0439337894104641
230,2300,0.0257981762567863,-0.0118903890588266,0.014869484734648,0.0062105470872831,-0.2886769749028433,0.3287977827466152,9.63900472681009,-0.0659786043682825,-0.0512096588010342,0.0660104872765448
231,2310,0.0295560380530385,-0.0112330999226437,-0.0026833172871075,0.003064241942725,-0.3303183794552073,0.1495387250024292,9.572376875701396,-0.0705166631231775,-0.0542970369267136,0.0273123862267991
232,2320,0.0217754531609192,-0.007430650782609,0.0199489231838367,-0.0140958112253041,-0.2029593320977687,0.3104889264644721,9.672944639557656,-0.0609318632786872,-0.0436054271745131,0.0518267154794993
233,2330,0.0274331264010092,-0.0114915727062024,0.0133202326948874,0.0115793481996328,-0.1886669897669671,0.2208650899876897,9.532854352701868,-0.0748335324682294,-0.0461128322676889,0.0691010587277141
234,2340,0.0133168492505192,0.0278821224697174,0.0203167675867719,0.0011871597955606,-0.3408714646830041,0.1091473852651377,9.489063006598723,-0.1002681815098982,-0.0484891575098454,0.0575973053038125
235,2350,0.0067337392882304,-0.002215861699567,0.0070351471216778,-0.002567448237867,-0.141791215209611,0.0830523148812647,9.714672261426031,-0.0639334440762616,-0.0404567739210445,0.0246877269334198
236,2360,0.0185153309596238,0.0045225783082603,0.0392701481573921,-0.0040926261294316,-0.3298285608183363,0.0470243254511481,9.186462896527177,-0.0667180426576681,-0.051448410557264,0.0472103190815725
237,2370,0.0090052593803718,0.0081837634554579,0.0109303631598897,0.0129619408530701,-0.3493489500240591,0.0961016338742516,9.76821875790287,-0.0364569057964148,-0.03942731583659,0.062180001434644
238,2380,0.0132352511242777,0.0113951250317226,0.0183406265169248,0.0057335152476325,-0.3823760683369441,0.2103880995427138,9.792278799319083,-0.0708708474776556,-0.0349493438156722,0.0066825698013145
239,2390,0.0306270744542148,0.0091729016863929,0.0269655646658592,0.0011135403294275,-0.3990473728605638,0.2220301529440491,9.542453320627486,-0.0948383611735045,-0.0334121223680161,0.0287378823417734
240,2400,0.02216358238683,0.0259244530123749,0.039220992533177,0.0083490517201587,-0.1882335432468519,0.0067312523627811,9.554301727432652,-0.049829739005684,-0.060104257298518,0.0612479690964574
241,2410,0.0380297748652766,0.0037939262060396,0.0316046033447688,0.0154700796388177,-0.3204525806426296,0.2800367574024259,9.88144769716019,-0.0572653445298997,-0.0432212731344656,0.0818489365191328
242,2420,0.0149372737559228,0.0079056461174564,0.0130861212068504,0.0207035899968152,-0.3046949343232836,0.0202886117643844,9.383402540457936,-0.0654282394732977,-0.0274002022886675,0.1037863300071085
243,2430,0.0332002971570013,0.012738345917518,0.0231266980471206,0.0324897619331128,-0.1404243273307362,0.2460075933706494,9.362891217884762,-0.0010843694887399,-0.0500658678314719,0.0299937637607079
244,2440,-0.0053940513565469,0.0236212644208355,0.0127252987303058,0.0003607728842468,-0.1494033552697238,0.0996981686460022,9.574936253479784,-0.0549252836254505,-0.0536314754932692,0.0223078511702886
245,2450,0.030381134825241,0.0087077367394591,0.0360148766121581,0.0106326497379656,-0.5206895305571929,0.2675976320774882,9.77867708292931,-0.0830892228337274,-0.0331352929132563,0.041181162381131
246,2460,0.0400518746710904,0.0077810455720631,0.0418606282621372,0.0152751779936932,-0.1704211028046052,0.1439971837280955,9.433067881967688,-0.0564489971668966,-0.0383046254302124,0.054224906932267
247,2470,0.0531315186070425,0.017280626940102,0.020987541138862,0.0235785690861875,-0.2488546979571889,0.2054012984561539,9.596439932410153,-0.0300392836701818,-0.0522846826067959,-0.0143802518977946
248,2480,0.0529364348810064,0.0330324179692919,0.0439082422195758,0.0226976854399504,-0.3623257094605441,0.1340191110155206,9.706222094424865,-0.058290739896635,-0.0487051302305077,0.0264904379423739
249,2490,0.0243681495477496,0.0133370433215124,0.0336305113659055,0.0097414687359005,-0.2907586203771892,0.0863712516054107,9.283456994091322,-0.0583586661697887,-0.048506135969621,0.060545986691919
250,2500,0.0293635478659424,0.0229054351336022,0.0239851021251038,0.0263370695706487,-0.2644138906236911,0.2146835883699784,9.730132458276213,-0.0683444244893653,-0.0343726978738734,0.0997595196994493
251,2510,0.0288387083578913,0.0090608943074206,0.0279043030632643,0.0322631101692021,-0.2080840994821919,0.1354709301513054,9.216009125955088,-0.0296471643574137,-0.0628469265179286,0.066382723061724
252,2520,0.0399830104927351,0.0287245300787423,0.0248459297305279,7.534645634831895e-05,-0.1563146335984104,0.0817456687338124,9.22889620038358,-0.0186765682297636,-0.0413409662617798,0.0476488968043763
253,2530,0.0307387126021542,0.0053693566944305,0.0497427729175394,0.0114054420162791,-0.2746669568832277,0.2034698580482076,9.524051544052837,-0.0451194463488111,-0.0362614693857709,0.0507050917592588
254,2540,0.0365432491652414,0.0350619907750081,0.0253983862720623,0.0216964829756664,-0.2899102710458057,0.1233574147275358,9.186200880775422,-0.0201377925367725,-0.0511469681687606,-0.0118394139760693
255,2550,0.0446668520280648,0.0421964755081318,0.0317360014707674,0.0049076348549636,-0.2687917027508634,0.0359244156182353,9.4396170426698,-0.0389423799659455,-0.060181336082227,0.0383175759891149
256,2560,0.0263915085958523,0.01735222896448,0.04521846802409,0.0130670556976491,-0.2790894276318429,0.352828212701725,9.867294058107133,-0.0600473193818274,-0.0462271072304505,0.0283141143562432
257,2570,0.0123813950462413,-0.001969825205299,0.0106957571263327,0.0021650815868559,-0.2175253235146736,0.0885177970912848,9.522480965054482,-0.0597681317417269,-0.0625276101548918,0.1042380294539841
258,2580,0.0273201899354346,0.0295883033322489,0.048331352707741,0.0347985492576917,-0.4039793410593145,0.2701943209143925,9.5887161285222,-0.059047469464596,-0.0316768631601732,0.0487933416958472
259,2590,0.0352097709535374,0.0255975971561407,0.0146503601555288,0.0208405298987729,-0.1857224370040388,0.1325669524069463,9.818392625069546,-0.0103884874080019,-0.0322502099343392,0.0307872985842454
260,2600,0.0239615874736577,0.0130384643064594,0.0481897290462923,0.0247822487998698,-0.24956828630493,0.2614866980641168,9.576221211252498,-0.056624639275125,-0.0604294164503753,0.0354833251007255
261,2610,0.0339888875508682,0.0315125890859049,0.0432920540099154,0.031222606180038,-0.3016669389803369,0.1486793294333433,9.6081304454877,-0.0380404535826838,-0.0435360155521169,0.0706973248009323
262,2620,-0.0082183811805705,0.0149272262764118,0.0144520672277476,0.0154095095159514,-0.3651683486912279,0.1424645539124507,9.480760044903464,-0.0525199628223386,-0.0447651895242749,0.0680262194518318
263,2630,0.0162299028959887,0.0013014491031087,0.0225482631676035,0.005423610212192,-0.222050648981007,-0.0958476975523787,9.762654336370492,-0.0342588038854892,-0.0647290311910037,0.0329102821999269
264,2640,0.0313687193302437,-0.0012799847857666,0.0304738352348872,0.0071839014818804,-0.0663358678144294,-0.0004579402954853,9.607886403989928,-0.0368089661626349,-0.0499966237920297,0.0106036291559363
265,2650,0.0314373630144235,0.0130999987891037,0.0277443312892984,0.0196643796837387,-0.3238849480813555,0.008245075340105,9.63495890686474,-0.0332044076394731,-0.0342831481826414,0.0861296661024794
266,2660,0.0246523672091324,0.0044523721011739,0.0224339317948538,0.0006861458353781,-0.1716727425284616,0.1385147358112944,9.632647241859562,-0.0359649975656819,-0.059745969918657,0.0284988325547328
267,2670,0.0309180466268622,0.0198751140413245,0.0228083963612972,0.0030463054944164,-0.3125239961934982,-0.0177575436916732,9.733759054882745,-0.063230018172176,-0.0451033455277091,0.0126748474893091
268,2680,0.0099774906689367,0.0085212938201135,0.0099989911593499,-0.0173633510621759,-0.3322719754190938,0.1746924522582539,9.981604807495248,-0.0135309914885556,-0.0574943415927915,0.0137275631241451
269,2690,0.0096428258549916,0.0003638109463574,0.0123833882244309,0.0033204889578943,-0.3087619146146764,0.1071860374788077,9.6938370993713,-0.0179540559454168,-0.0512775543044493,0.0138356872647041
270,2700,0.0068405436588806,0.0008652400144282,0.0113152665088046,0.0155569834066532,-0.3854828217964344,0.1545554646054994,9.095373680083302,-0.0140510083580651,-0.0507507507969973,0.0322387983156734
271,2710,0.0136249658459317,0.0111909914224115,-0.0042068178472252,0.0042598749153325,-0.3335012388035183,-0.0195190790933691,9.940613934108836,-0.0311137936028242,-0.0403038901231356,0.0169883063512435
272,2720,0.0099622127991332,0.0099733829787957,0.0269860044229469,-0.0054342183383879,-0.3946335004628677,0.2511890456116665,9.911986757603843,-0.0394969940734476,-0.0528236258573318,0.0372663388502184
273,2730,0.0249228515535793,-0.0155817102711093,0.0076972861329855,0.008432836455607,-0.2203848338455027,0.0010468595779752,9.894431801366284,-0.023630157909182,-0.0400627986915002,0.0482549493806545
274,2740,0.0037408964856177,-0.0024426155871755,0.0147681684753273,-0.0112817094023716,-0.1666951716190933,0.0660584663986327,9.34886315051975,-0.0426099714920088,-0.036858690917239,0.0169702490596549
275,2750,-0.0116942335235731,0.009858130188784,0.0018160974621182,0.0016561829954602,-0.1567056617099762,0.1298775196705505,9.52357121265915,-0.023059665933978,-0.0646451268422284,0.0379335570796763
276,2760,-0.0098150268085967,-0.0147631239917757,-0.0033009048550735,-0.0138082467037861,-0.3217753607506614,-0.0026357720669031,9.79392903873487,-0.0311858712581844,-0.0374768411838056,0.0148415642624845
277,2770,-0.0050245623488571,-0.0085059849643929,-0.0067601827571808,0.0089654534338612,-0.4775807338040959,0.0596883867008117,9.813697375478352,0.0083105421161964,-0.062515954288854,0.0599696758553228
278,2780,-0.007570406281897,-0.0200835532356141,-0.0186518936359385,-0.0036031508805795,-0.3281772746629816,0.0742190610628378,9.464144217476004,-0.0273564011639753,-0.0615149335299275,0.0162063508798289
279,2790,0.0143865846085526,0.0095480968647317,-0.0024358661089481,-0.0239231419425626,-0.3696583483710192,0.0690723426622438,10.00234605274245,-0.0244766444543459,-0.0541588873205151,0.07716190062421
280,2800,0.0166001582268716,0.0197996749903828,0.0158468929741475,0.0010977612917484,-0.4240000752757265,0.1350199433688561,9.600108838439375,0.0162720855674549,-0.0425215601121326,0.0120869037076788
281,2810,-0.0146287442519748,-0.0156111587033203,0.0010576390827452,-0.0113401323433156,-0.2722595674287071,-0.0098114073340109,9.802238436968796,0.0309031638502081,-0.0494518956629907,0.0446348476392379
282,2820,-0.0079896125802554,-0.0144263579302501,0.0031876630600472,0.0010802559823316,-0.2489747526364502,-0.123315318089008,9.875578135057868,-0.002505183733854,-0.059421754288897,0.0191942083594873
283,2830,0.0036000212416461,-0.0112833616602214,-0.0140469581091071,-0.0137874684229884,-0.2311223218249057,0.1091490073657117,9.825553980804138,0.0111691398865702,-0.0516783029879353,0.0056182793922481
284,2840,0.0142228584272461,-0.0031796507648159,-0.0078152196726341,-0.0055741440646425,-0.1508744466726055,0.0377735012159337,9.425548151461356,0.0040163213124124,-0.0563298739278374,0.0108712452909745
285,2850,0.000903766870275,-0.0144889064061784,0.0003841185020075,0.0045114868420056,-0.3455276116580239,-0.0597215640820236,9.527920766822078,-0.0034351932625983,-0.0540539504416583,0.0065511822278831
286,2860,-0.0003099148447296,-0.020135957893444,-0.0069875572155628,0.0055326521560367,-0.2562910292446377,0.07995046496486,9.52163083922174,-0.031659546041453,-0.0427800905399811,0.0349478845200722
287,2870,-0.0112515101321789,-0.0023810108856941,-0.0005669607473153,-0.0043980764997999,-0.1748122941050474,0.1787410955723218,10.100281622156002,-0.0621330946987453,-0.0332428892113931,-0.0281975876898949
288,2880,0.0008767335208236,0.0129210280326935,0.0122705579520078,0.0049782974179965,-0.3366099659251184,-0.1619039907143394,9.472858406654945,0.004424783664381,-0.0416054444056069,-0.0034971527709289
289,2890,-0.0081958685781483,0.0037979845526147,0.003323462753838,-0.0080687933991493,-0.2755939395731371,0.1917189768194082,9.937657756472412,-0.00758154426266,-0.0434749910851051,-0.0203314628676789
290,2900,-0.0229146928196579,-0.0158087619984772,-0.0016847457877292,0.0016684486431154,-0.2874281505585264,-0.0408537123296519,9.914935670506456,-0.0097197244507283,-0.0428914135546253,0.0081123471077163
291,2910,0.0144126469921645,-0.0050874352050581,-0.0117098011726278,-0.011175028579176,-0.3612479975771259,0.0889734141816184,10.030546161288845,0.0069042265118722,-0.0303395769588536,-0.0153065800509661
292,2920,0.0104556430808625,-0.0003100141586507,0.0204249059635856,-0.0046654457838377,-0.3687654324731719,-0.0122312695345711,10.130705737969492,0.0348631998843049,-0.0557906047571802,-0.0272739233590061
293,2930,0.0075755056036009,-0.0262436308191087,-0.020809242959907,-0.0143300797994225,-0.3241783388854897,0.0153385087408122,9.79011529044163,0.0386462848809591,-0.0465797608260268,0.0237034091306037
294,2940,-0.0048355538313016,0.0212714606323477,0.0069724486462933,-0.0043929408416402,-0.1616041971046499,0.0089830343758355,10.004259522637176,-0.0018758002114119,-0.0496018596371902,0.0397203180672445
295,2950,0.0050315429029383,0.0083892858320764,-0.0039323924980609,-0.0002213757931029,-0.1803759399111992,-0.1909531665918011,9.680340974765953,0.0172279938235458,-0.0456209725848207,-0.0192885492489623
296,2960,-5.82266349253936e-05,-0.0075079042826171,0.0128036841374799,0.0050066560811958,-0.3422468107196347,-0.0319522986733156,9.971467510584974,-0.0003550830974416,-0.0704539810602311,-0.018328969031889
297,2970,0.0121790518556358,0.0149586863306206,0.0021060532074179,-0.0196191568075747,-0.3323182706823785,-0.0243633189723088,10.079069335253584,0.0115664240495623,-0.059710656764485,-0.0291732451766785
298,2980,0.0014519958692098,0.0270140763643708,0.0153714587866297,0.0163566482352993,-0.2013686413952127,-0.1390031670210242,9.809455992679013,-0.0130731116181574,-0.0620834999614966,0.0429328383155353
299,2990,0.0172794866986547,0.000318930490699,0.0106351618285104,0.0203499071755504,-0.1472050081278262,0.0312591546419056,9.6716391133799,0.0129329306747459,-0.0546712437453565,-0.00532140723709
300,3000,0.0178919868697603,0.0079988215842505,0.0087765570553161,0.0164010906390534,-0.2808380324497433,-0.0847870993821638,9.44352724133574,0.0112876019748498,-0.0424006797463859,-0.0381249057868751
301,3010,0.0193290100065128,0.0182819605407757,-0.0023929591909425,0.0021989253912238,-0.3595201428711845,-0.0813825734199364,9.823261871323329,0.0396571266806448,-0.0523058386237464,0.0556431454055558
302,3020,-0.0040373169056644,-0.0061287108333376,0.0077527077269051,-0.0083889400691117,-0.2379719236104227,-0.0406843254862378,9.8262547802943,0.0213850583066949,-0.039782877456766,-0.0503613384952771
303,3030,0.001323105931545,-0.0115905234195781,-0.0007942425197092,0.0018093495240117,-0.254870011737791,-0.0729143587756983,9.94211361430503,0.0355679314910407,-0.0632842617877874,0.0007443086219742
304,3040,0.0080618373620696,0.0177179495238456,0.0030403662550603,0.0017501489723765,-0.2661251509263955,-0.202677271100785,10.381492569402074,-0.0117610534902562,-0.0623593246086396,0.0052833027058284
305,3050,0.0144300463084269,0.0079157189354588,0.0127573386181163,0.0206857097923638,-0.4851033970959731,-0.0154239592583303,9.880194576601005,0.0204899371525154,-0.0466455447018548,0.0053906440397745
306,3060,0.0008318781256701,0.0082499813926631,0.0036144619537147,0.0198569631054379,-0.3633159275179922,0.1231808099236281,9.76583167828434,0.0260886198500397,-0.0562881377475905,-0.032131035720055
307,3070,0.0088660712330707,-0.0017855516342257,0.0173939119708514,0.0161032948647991,-0.1437474373925523,-0.0300449586057295,9.916740664601052,0.0187960942758049,-0.0497090204038722,-0.0508106166061576
308,3080,0.0035929071394144,0.0013468542762331,-0.0124657153053706,-0.0052851117421028,-0.2352179060517532,-0.0309317845531123,9.452418918138234,-0.0027881656201599,-0.058879286724568,0.004450107213995
309,3090,-0.0030765755651257,0.0013023510497069,-0.0054612972510649,0.0168880178089788,-0.3349556698084532,-0.0420720885686047,9.981954332382475,0.0252774436303059,-0.0395942555256786,-0.0182390479982832
310,3100,-0.0078798789799795,0.0038318857128556,0.0002874037295516,0.0083751477538912,-0.4066224557767338,-0.0414754125599501,10.006379129152872,0.0018902722758397,-0.0419150172430111,-0.0140991196866143
311,3110,-0.01296475617257,0.006810047886765,-0.0231115942455333,-0.0187293571223616,-0.3780920860473264,-0.0513526436165823,10.197136960386535,0.0384154759657306,-0.0547990699720967,-0.0446847343722932
312,3120,-0.0071357763603406,-0.0009596267815547,0.00311630883509,-0.0167218910587411,-0.1614581730149547,-0.2157379481839606,9.767386678365645,0.0112358983135232,-0.0503747295172984,-0.0067451073109855
313,3130,-0.0192276557352638,0.0032579239121775,-0.0161867137363883,0.0077423050303508,-0.3351651794218693,-0.0331612797485371,9.991551675880904,0.0325529460674252,-0.0630161189096523,-0.0766609263486184
314,3140,-0.0101520580115654,-0.0155697715226177,-0.0033722591562253,-0.0043321306237786,-0.1597355094341475,-0.1444151373090408,9.876286736154,0.0248046820721118,-0.0487996037665889,0.0138476293771553
315,3150,-0.0061978681819632,0.0050409752931287,-0.0043893870401557,0.0004378537045285,-0.2210931703879022,-0.1456327630984171,10.039670043246788,0.0057306580537592,-0.0495754338605169,-0.0069450470942207
316,3160,-0.0152893124676444,0.0056526969674645,-0.0308549615235556,-0.0231675711185221,-0.2890364749031595,-0.0787667116361434,10.183405836063985,0.0306393758803073,-0.0600942017000337,0.0113989268926707
317,3170,-0.0196003832763818,-0.0070977260151938,-0.0216248608397617,-0.0001800738105329,-0.2805041158462228,-0.1004587498515009,9.949522652723568,0.0337794841945923,-0.0448709441029163,0.0071328104119275
318,3180,-0.025365127210161,0.0111354582484319,0.0062185447513841,-0.0111149739804808,-0.1992103126703281,0.0302542662636785,9.997628136753034,0.0327667921487594,-0.0400705273250613,-0.0427033784086864
319,3190,-0.0194077230177022,-0.0257148413986393,-0.0255436199887984,-0.0276103015745411,-0.3835902884251625,-0.0192157793053696,9.826484997188256,0.0002471180373417,-0.0599394499401023,-0.0531373645016536
320,3200,-0.0284662341458648,-0.0160468521805698,-0.0319921472844978,0.0002276523448395,-0.412096880345601,0.0597489897282339,9.673155124523806,0.0608363593403742,-0.0614716848321722,-0.1074882049417706
321,3210,-0.0120817546624033,-0.0195357607834309,-0.0216612203395466,-0.0340180543410142,-0.3577981850149279,-0.344739566968523,10.350417986357828,0.0625967582133338,-0.0520831825019875,0.0127569862488615
322,3220,-0.027879043016434,-0.0226447075187827,-0.0295606357428142,-0.0229985551052262,-0.2887366512758366,-0.2885386321160834,10.250800769768148,0.0255458232431839,-0.044076836344148,-0.0101027523974106
323,3230,-0.0307629094174866,-0.0114096845889532,-0.0384349020963937,-0.0358793001813855,-0.4240664179250576,0.0123388476253237,9.842254139064794,0.0539321647970233,-0.0451180514888216,-0.0115964118727919
324,3240,-0.0307919166957681,-0.0036824547541884,-0.0290118991117849,0.0065774377399813,-0.3388217642705021,-0.2603718782195267,9.738385596285386,0.0584329027825918,-0.045441444842287,-0.014074180923815
325,3250,-0.0387457397238576,-0.0117180989416255,-0.020620487598342,-0.020349058250257,-0.4110145139133199,-0.179620026139916,10.122114702317225,0.0457108812262635,-0.0487914095601942,-0.0542754808568959
326,3260,-0.0303004177439559,-0.0351119608119291,-0.0446804584923192,-0.0365319762478402,-0.4029161930308091,-0.2523650938637759,9.92018708335663,0.0404846403145759,-0.0468860314659435,-0.0080471240086003
327,3270,-0.0140920141901015,-0.0018000125254527,-0.030997056564594,-0.0192382492706525,-0.1815740088557753,-0.048196921128763,10.375082192779823,0.0148622204319415,-0.0471108680675621,-0.0218641580337043
328,3280,-0.0122178146988979,-0.0079513019142036,-0.0138673179101943,0.001653399939146,-0.1788810199857196,-0.2747604183183035,10.50513134997481,0.0335835072396303,-0.0431602040816268,-0.0843293209389954
329,3290,-0.0312068118370983,-0.022285573513675,-0.039538632189996,-0.0239655104142179,-0.1897652833797962,-0.0425042865852533,10.012738133777756,0.0340115800595665,-0.047946696747979,-0.0569292505699358
330,3300,-0.0363561963052428,-0.0322095952516613,-0.0299681359359781,0.0016967743205204,-0.2802997105269842,-0.0101557108473541,10.323577535257122,0.0771208747281948,-0.0493857110648154,-0.0355823930472895
331,3310,-0.0266008068991559,-0.0383589637002019,-0.0307369648647059,-0.0303912662275248,-0.2883461047499983,-0.1430993107801288,10.15566691240924,0.0553407589013221,-0.0446436239431714,-0.0717199179512432
332,3320,-0.0399358432266003,-0.0241981128163879,-0.0363073380913347,-0.040056652943715,-0.2535934477395558,-0.2249064234777086,10.46034807335376,0.0480842503543009,-0.0765863233382948,0.0235879455657776
333,3330,-0.0419524860639906,-0.0262695751683729,-0.0254903808288277,-0.017687590529866,-0.0869696861673351,-0.2140925121129636,10.253455702792722,0.0275273799466683,-0.0458753669783866,-0.0423502325295875
334,3340,-0.0432451025944453,-0.0253925622009741,-0.0352091444797981,-0.0132256692324164,-0.1919530145147795,-0.2493209179641557,9.947112948419248,0.0694706238364828,-0.0421271761962986,-0.0401293248505592
335,3350,-0.0400152109820604,0.0001703351156287,-0.0430161399900672,-0.0361280968365849,-0.3406246460200512,-0.0691196649020826,10.232194702492404,0.0634217066698239,-0.031441349795106,-0.0509587534819521
336,3360,-0.016787942022,-0.014715881599375,-0.025579514401096,-0.0277502472873841,-0.3475678724754205,0.0734332876847435,10.036800970468368,0.028290814936622,-0.0517970585862656,-0.0574529435086693
337,3370,-0.032832497254884,-0.0213987671649282,-0.0416983238959887,-0.0247698239791418,-0.3428121185916755,-0.1274825331046692,10.189012715184166,0.0490840945871534,-0.0565036029810737,-0.0171717468747861
338,3380,-0.0248184584426508,-0.0288232397419993,-0.0159720686304976,-0.0255728709119839,-0.0205604628870491,-0.0564931272500566,10.3794972812526,0.0516690864295993,-0.0294275013588707,0.0005518674739743
339,3390,-0.0445924842719133,-0.009807228632682,-0.0296176686494781,-0.0103877944370652,-0.5116263580848082,-0.198944263219301,10.107143760193328,0.0943484603830961,-0.0418445388030111,-0.0928771842409781
340,3400,-0.0469784949346256,-0.0213519785529868,-0.0286762310415814,-0.0208611062138619,-0.3062642655423164,-0.0788289523619072,10.248367230897715,0.0571006727943004,-0.060699152785196,-0.0441721222543617
341,3410,-0.0546041942411339,-0.0231647871102428,-0.0382632976531513,-0.0192389462301272,-0.4008220204602002,-0.1640173640154659,10.316448485595348,0.0346014710834545,-0.0497755103225577,-0.090519005856764
342,3420,-0.0349862235825984,-0.0056794656985343,-0.0295531056222611,0.0086518485938345,-0.2014166091389315,-0.1904080280409634,9.853497070009208,0.046528405616992,-0.0516871256962714,-0.0201543116694955
343,3430,-0.0153779634588034,-0.0120024979310215,-0.0168808698898899,-0.0082652417801553,-0.560508175742561,-0.2329073191126388,10.015444556228555,0.0906643562648205,-0.0581645726735657,-0.0819440319796546
344,3440,-0.0188042775218985,-0.0099050849834301,-0.0387977774838805,-0.0147781577207196,-0.2800292396732272,-0.0164898125989951,9.855783909201948,0.0913462657217026,-0.0541299587252603,-0.0947340529976096
345,3450,-0.0243736980408604,0.0045812968797795,-0.0213447812866546,0.0018221853039628,-0.3720735880916659,-0.0949408346704528,9.739773554063104,0.0689396551278153,-0.048969861408149,-0.0487288040340074
346,3460,-0.0176368686237035,0.0060826491429304,-0.0248174296142722,-0.0035692178379648,-0.2178192021336223,-0.0185832969321081,10.332400563633673,0.0519651047032567,-0.0376665525789294,-0.0525501924526744
347,3470,-0.0310118878833183,-0.0021378078590818,-0.0269903047387605,-0.014728875395404,-0.2446487504363378,-0.1565886758948972,9.806984282457186,0.0638856711689859,-0.0536806232653287,-0.0105650068181337
348,3480,-0.0262490675697277,0.0053120095179959,-0.0110560375878633,-0.0154048790669029,-0.2395349797884734,-0.4008965576756705,10.0602835309302,0.0780599600901825,-0.0428283459824563,-0.0617292028508902
349,3490,-0.0315213719008478,-0.0281691164992115,-0.0257741920371946,0.0027635973702056,-0.4305334050773404,-0.2880731985041085,10.16789947041595,0.0957078587595486,-0.0515735444743786,-0.0532962355879139
350,3500,-0.0123722778700689,-0.0037629965602185,-0.0260044085450086,0.0064960551793604,-0.4063856069293034,0.0362268504842388,10.303419833938223,0.0802870567800164,-0.0360443799775159,-0.0411144784495466
351,3510,-0.0220051797519983,-0.0086487462249831,-0.017940005390389,-0.0092968278283842,-0.3171444733056656,-0.1726118286799137,10.202781875572406,0.0610976148840854,-0.0413764200963356,-0.0113561710714931
352,3520,-0.0103959262914778,-0.0014748413841432,-0.0129589538187486,-0.0070281537614239,-0.2584782969957791,0.0210031506561095,10.25902813572936,0.0942292404552392,-0.048229260967726,-0.0779718950061177
353,3530,-0.0095574495437272,-0.0003695979077621,-0.0154863336470019,0.0123041179816687,-0.2237222180275407,-0.1132814653789324,10.03562128592566,0.0376137762840967,-0.045861616703296,-0.0799437181146412
354,3540,-0.0156166489846179,-0.0007419960439396,-0.0131046419408046,-0.0122285778477836,0.0003701222867728,-0.3141487027446619,10.36894556577398,0.0678924977142495,-0.0525983435110209,-0.0955048031571174
355,3550,-0.0034580044699221,0.0014228901365294,-0.0386418866913777,-0.0140810056543614,-0.2159879308245096,-0.1023413778010115,10.12149438330395,0.0955564885029914,-0.0335880342372014,-0.0250973232448399
356,3560,-0.0100010268140272,-0.0156388539748758,-0.0292820047936296,0.0032302454411907,-0.1326299571576258,-0.2656212754419846,10.051805475943205,0.0490649615427839,-0.0552488633359513,-0.0679279689686248
357,3570,-0.0100010268140272,-0.0156388539748758,-0.0292820047936296,0.0032302454411907,-0.1326299571576258,-0.2656212754419846,10.051805475943205,0.0490649615427839,-0.0552488633359513,-0.0679279689686248
358,3580,-0.0127793233863992,-0.013788349271980846,-0.030603499975606047,0.0038671380891574948,-0.10409571976169432,-0.2732280552393031,10.038390385313402,0.04848415813494904,-0.051174579820375765,-0.06826303498319723
359,3590,-0.0155576199587712,-0.011937844569085894,-0.03192499515758249,0.00450403073712429,-0.07556148236576285,-0.28083483503662154,10.0249752946836,0.047903354727114184,-0.047100296304800233,-0.06859810099776967
360,3600,-0.0183359165311432,-0.010087339866190941,-0.03324649033955894,0.005140923385091084,-0.04702724496983139,-0.28844161483394004,10.011560204053797,0.04732255131927932,-0.0430260127892247,-0.0689331670123421
361,3610,-0.021114213103515196,-0.00823683516329599,-0.03456798552153539,0.005777816033057879,-0.01849300757389992,-0.29604839463125854,9.998145113423995,0.04674174791144447,-0.03895172927364917,-0.06926823302691454
362,3620,-0.0238925096758872,-0.006386330460401036,-0.035889480703511834,0.006414708681024674,0.010041229822031539,-0.30365517442857703,9.984730022794192,0.04616094450360961,-0.03487744575807364,-0.06960329904148699
363,3630,-0.026670806248259196,-0.0045358257575060824,-0.03721097588548829,0.007051601328991468,0.03857546721796301,-0.3112619542258955,9.97131493216439,0.045580141095774754,-0.030803162242498107,-0.06993836505605942
364,3640,-0.029449102820631196,-0.002685321054611131,-0.038532471067464734,0.007688493976958263,0.06710970461389448,-0.318868734023214,9.957899841534587,0.04499933768793989,-0.026728878726922575,-0.07027343107063186
365,3650,-0.032227399393003196,-0.0008348163517161774,-0.03985396624944118,0.008325386624925057,0.09564394200982596,-0.3264755138205324,9.944484750904785,0.04441853428010503,-0.022654595211347044,-0.0706084970852043
366,3660,-0.0350056959653752,0.0010156883511787743,-0.04117546143141763,0.008962279272891852,0.1241781794057574,-0.3340822936178509,9.931069660274982,0.04383773087227018,-0.018580311695771512,-0.07094356309977673
367,3670,-0.037783992537747196,0.0028661930540737277,-0.042496956613394074,0.009599171920858646,0.15271241680168887,-0.3416890734151694,9.917654569645178,0.04325692746443532,-0.01450602818019598,-0.07127862911434917
368,3680,-0.04056228911011919,0.004716697756968681,-0.04381845179537052,0.010236064568825441,0.18124665419762034,-0.3492958532124879,9.904239479015375,0.04267612405660046,-0.010431744664620449,-0.0716136951289216
369,3690,-0.04334058568249119,0.0065672024598636344,-0.04513994697734697,0.010872957216792236,0.20978089159355182,-0.35690263300980635,9.890824388385573,0.0420953206487656,-0.006357461149044917,-0.07194876114349404
370,3700,-0.0461188822548632,0.008417707162758588,-0.046461442159323414,0.01150984986475903,0.2383151289894833,-0.36450941280712484,9.87740929775577,0.04151451724093075,-0.0022831776334693854,-0.07228382715806647
371,3710,-0.048897178827235196,0.010268211865653538,-0.04778293734129986,0.012146742512725826,0.2668493663854148,-0.3721161926044433,9.863994207125968,0.04093371383309589,0.0017911058821061462,-0.07261889317263892
372,3720,-0.05167547539960719,0.012118716568548491,-0.049104432523276315,0.01278363516069262,0.2953836037813462,-0.3797229724017618,9.850579116496165,0.04035291042526103,0.005865389397681678,-0.07295395918721136
373,3730,-0.05445377197197919,0.013969221271443445,-0.050425927705252754,0.013420527808659415,0.32391784117727773,-0.3873297521990803,9.837164025866363,0.03977210701742617,0.00993967291325721,-0.07328902520178379
374,3740,-0.057232068544351186,0.015819725974338394,-0.05174742288722921,0.01405742045662621,0.35245207857320915,-0.3949365319963988,9.82374893523656,0.03919130360959131,0.014013956428832748,-0.07362409121635623
375,3750,-0.0600103651167232,0.017670230677233348,-0.05306891806920565,0.014694313104593005,0.38098631596914057,-0.4025433117937173,9.810333844606758,0.03861050020175645,0.018088239944408273,-0.07395915723092866
376,3760,-0.0627886616890952,0.0195207353801283,-0.0543904132511821,0.0153312057525598,0.4095205533650721,-0.4101500915910357,9.796918753976955,0.0380296967939216,0.0221625234599838,-0.0742942232455011
377,3770,-0.0627886616890952,0.0195207353801283,-0.0543904132511821,0.0153312057525598,0.4095205533650721,-0.4101500915910357,9.796918753976955,0.0380296967939216,0.0221625234599838,-0.0742942232455011
378,3780,-0.0454680948272795,0.0460819544153039,-0.0315381922515859,0.0222102378242491,0.2645906668362459,-0.426112832521332,9.9938761162557,-0.0218856749905329,0.0309094817092208,-0.0797144116182879
379,3790,-0.0659797007868045,0.0300687558332448,-0.0499773233224351,-0.020839738676032,0.1561903177039073,-0.3864358465203507,9.697966502054356,-0.0189715719449165,0.0319634094990243,-0.0756444656913197
380,3800,-0.0682801337587847,0.0241836639537622,-0.0394601362324956,0.0007978624255845,0.2484482482801222,-0.4401251753476934,9.596957274936264,0.0455657788213559,0.025940480166015,-0.0986577302852513
381,3810,-0.0332722427646031,0.045868591285056,-0.0286297878728498,0.0327291175602451,0.2463412924364967,-0.4954431794969609,9.946486875389311,-0.0043883903933792,0.0310813004195482,-0.0902286400715772
382,3820,-0.0554204253362799,0.048833104351981,-0.0480329250401473,0.0142207181806318,0.327732249330036,-0.4762499904721706,9.766804933499332,-0.0083531807813615,0.0432975356427235,-0.1294467417098183
383,3830,-0.0510218526022647,0.0419839814884397,-0.0347624060531872,0.0082919539494154,0.2450995520384598,-0.5040524874275246,9.685165321393958,-0.0188700859416677,0.0202078402470779,-0.085361845355731
384,3840,-0.0349304219383181,0.0289319127959657,-0.0438995589126123,0.0057201795501035,0.3589088359756792,-0.4431333880303503,9.77791027290504,-0.0171403641626883,0.0440066746593188,-0.0694253942153281
385,3850,-0.0855036717246967,0.0280781114817697,-0.0381029462013692,0.0077673117792343,0.3258988346072013,-0.3117453097477009,9.804840041733137,0.0041018342367745,0.0520279681631178,-0.1382828402935339
386,3860,-0.0298477328906372,0.0420498806371664,-0.0425224661281599,0.0019996290200944,0.2730349422923797,-0.4554322477865436,9.772780010763428,-0.0192491790306799,0.0146470335802336,-0.1100155114946207
387,3870,-0.0677446374671376,0.036139051207874,-0.0276463491122329,0.0252589546988168,0.0740873211888343,-0.4348283553237801,9.761610461542915,0.001310365974727,0.0379474901178685,-0.1012333184843869
388,3880,-0.051115025459869,0.0301229275332744,-0.0440167703978748,0.0211910957756613,0.2845620650570654,-0.5179251314040995,9.782348431708298,-0.018955894186588,0.0206474948552122,-0.0899081105430957
389,3890,-0.0333204028438136,0.0559975846063825,-0.0508926182707028,0.0047050663056549,0.3554309011695213,-0.3883205393342886,9.711061189664196,0.0133681589432082,0.041654380873891,-0.1151571179085063
390,3900,-0.0357324480632097,0.0235168798857038,-0.0334195541158079,0.0170684248244553,0.3102987559711978,-0.4765195242777751,9.806748366891256,0.007249969150215,0.0462246324720052,-0.1180675998051059
391,3910,-0.0630779900560449,0.0340817320322576,-0.0369111745747701,0.0175732314573533,0.1568086219904543,-0.5354429215157303,10.096169052458372,0.0116837932076602,0.0507624643633565,-0.117277147275353
392,3920,-0.0570270103354842,0.0283199158021852,-0.0187895633358927,0.0128617668474602,0.3029087069648253,-0.4092097149648793,9.57706148441352,-0.0157061446827901,0.0469309318409134,-0.0941870373519472
393,3930,-0.0656473761823929,0.0265392570082544,-0.0482064661410459,-0.0014319668762662,0.1844519767819919,-0.3635753564681319,9.812473262387616,0.0013103326633978,0.0379647931467957,-0.118359690490874
394,3940,-0.0650262410237621,0.0205864911655915,-0.0478026868511594,0.0139579038233092,0.2086710759098339,-0.5077577529101006,9.47521315215946,-0.0164095081068225,0.0519227492416872,-0.1336699847385978
395,3950,-0.0660928375762346,0.0263375177130751,-0.0460399677715843,-0.0031414889015438,0.2561919917686355,-0.4049234639026253,9.538611145803284,-0.0005722080179514,0.0404129180723454,-0.1276378628521502
396,3960,-0.0312690294938713,0.0448652041122492,-0.0241183428189162,0.020451239020878,0.2386777567302599,-0.3809315828594855,9.826824209385396,-0.0531244607051943,0.0308282852433671,-0.1066940415801026
397,3970,-0.0394998914659902,0.0352016690315208,-0.0454282188543905,0.0085689474730193,0.328137165762532,-0.4659112347524241,9.64862132458854,-0.0619981225982188,0.0300992267636302,-0.0906435755119498
398,3980,-0.0601712509721131,0.0371894577818778,-0.0315662024654505,0.0019178413669854,0.1421146215367778,-0.3724481236384693,9.922577270758447,-0.0126033345276008,0.0347101395231311,-0.1271362282479212
399,3990,-0.0337735968293419,0.0431133346233679,-0.0348066593098017,0.0324794566608222,0.1244940730963503,-0.4199386546789931,9.690557906916943,-0.0015162350424104,0.0382943938334214,-0.1283563809558778
400,4000,-0.0483348535426525,0.0308564995454532,-0.0437364755265913,0.0037337889779469,0.2305880277330224,-0.3810320812583047,9.634110410681458,-0.0154943490005046,0.035771630150096,-0.0984449248331877
401,4010,-0.0605424834287201,0.0346718089158546,-0.0419180738223488,0.0032248554475528,0.0244793145355983,-0.2112015911238955,9.461559347136651,-0.0143825544536094,0.0504070366265032,-0.0913608338327809
402,4020,-0.0512443916083254,0.0174224612334792,-0.021329962951328,0.0158309691610402,0.235387937490625,-0.4151695314392439,9.624218161879057,-0.0042722477653444,0.0422393531202401,-0.0764039017171321
403,4030,-0.0580042811210749,0.0168751321569684,-0.0390819692872951,0.02886309581188,0.240370491685018,-0.5135827122081391,10.012921409346957,-0.0217827345413768,0.0428902269484996,-0.0940930737841207
404,4040,-0.0564193463862211,0.031979796000907,-0.0467909783066588,0.0099617431245549,0.2082872847875825,-0.2703377530854802,9.63412587178388,0.0135120260712657,0.0430081812947824,-0.1271655569679925
405,4050,-0.0603209621796876,0.0079510769956052,-0.0187193720596101,8.537282499391369e-05,0.2659430173870226,-0.4529293026806893,9.566268514602012,-0.0147662322482748,0.0392633117602353,-0.1011805928122666
406,4060,-0.0652692355342949,0.0259661150722685,-0.0647246472604012,0.0001923878396784,0.3570710453610662,-0.2002700827551454,9.6636285710751,-0.0169436244257486,0.0425270413419839,-0.0658067518322574
407,4070,-0.0868335374690284,0.0187895956374955,-0.0362699630874921,-0.0021399632471056,0.1795007140404378,-0.5042310284413345,9.39265357306962,-0.0292537110558891,0.0499583334432138,-0.0939903666713276
408,4080,-0.0431348276430084,0.0261506845494668,-0.0525138499473636,0.0218001288517779,0.3705390974912582,-0.4419308034941857,9.271891078061348,-0.0264161527889701,0.0512805979973737,-0.1085913653623561
409,4090,-0.0474389711886929,0.0430421759302973,-0.0621851586086645,-0.0014238692402672,0.2270732346012526,-0.3766862239967228,9.826877152288375,-0.0496850183535513,0.0458318886915014,-0.0846359506805184
410,4100,-0.0694614506979429,0.0332223775732403,-0.0554168700556035,0.0007952388901614,0.3410737024927692,-0.469715437867904,9.877006436417217,-0.0195299116943634,0.0443322112635237,-0.0877352995583515
411,4110,-0.0681579649473695,0.0382425562790191,-0.0275259856410219,0.0034770285699538,0.2936687418103427,-0.3475378958905999,9.28052485738007,-0.02961169000446,0.0382967758808839,-0.1072742728988325
412,4120,-0.0633354822239045,0.03102484735404,-0.0467659677823955,-0.0012741429297418,0.3141937377344559,-0.3650776796833236,9.702654858277246,-0.0495117388983967,0.0471106254581349,-0.1192145225172165
413,4130,-0.0607648991934445,0.0247710557435389,-0.0282593334522345,0.023350434945926,0.2304917473963866,-0.4836322736654288,9.550044788898708,-0.0083545263085798,0.0261501051698943,-0.0990444694586372
414,4140,-0.0445101799724169,0.0262129551182282,-0.0112025569039264,0.0136128623434346,0.2555990292923081,-0.5340039075535195,9.911526887421845,-0.0563829464483824,0.0259071363335913,-0.1052657220673625
415,4150,-0.0528461966321106,0.0192615560276492,-0.0182951202915337,0.0299387786940927,0.1223591844446227,-0.4159597215549672,9.579012404578036,-0.014019067287535,0.0408561399884596,-0.1107449742569196
416,4160,-0.0592623393594278,0.0067219031726261,-0.0483302540685957,0.0051072438755246,0.2364440072522697,-0.3913703394361257,9.83850015533087,-0.0134940887494155,0.0479163485551196,-0.104342904185502
417,4170,-0.0724530630655765,0.0415979337337997,-0.0332806398033868,0.0249340664454373,0.2720200342587201,-0.3906617333236093,9.5327458866857,-0.064558221236779,0.027243622404058,-0.11036482433879
418,4180,-0.0474092364791058,0.0405700029890487,-0.0251354242352949,0.0160720898198514,0.4719549756588642,-0.3839986398427021,9.338239626119927,-0.0745071992098411,0.0526523947652469,-0.129501101346475
419,4190,-0.0616581238333921,0.0373645220933011,-0.0426965318899654,-0.0046749984776201,0.4169584792795921,-0.3928941866433577,9.426243529848715,-0.0257234857706535,0.0570065994670443,-0.0693052254576548
420,4200,-0.0687966371992846,0.0107443567889941,-0.0289428941183444,0.002587986587068,0.4183099832844767,-0.3971990557059462,9.60206016996311,-0.0541802686408496,0.0378462862765247,-0.1294920006564016
421,4210,-0.0658938239619609,0.0308785769077683,-0.0410587386682941,0.0162960562755156,0.3163739485422377,-0.3059224093131467,9.339410043073109,-0.0525868222872747,0.0427300998444743,-0.1025967905783457
422,4220,-0.0514416356775934,0.0600051845893517,-0.0405081912108115,0.0293447276516383,0.1784837258427838,-0.3837468627866449,9.351283073929451,-0.0231479783742395,0.0561606906394692,-0.0972970445003658
423,4230,-0.0580529045724945,0.052198240509244,-0.0220785494836706,0.0319986127043912,0.0464548993814414,-0.5366279620634414,9.361636017258306,-0.0460204211987827,0.0322692294482235,-0.0770735759213028
424,4240,-0.0580576986414783,0.0362967851412681,-0.0331913405162707,0.0138557624906043,0.269481515878229,-0.3793548412541725,9.614401432863897,-0.0609869283718333,0.0643476065823337,-0.0948025048329802
425,4250,-0.050629087608522,0.020325937778123,-0.0142522126360801,0.0180725740060857,0.3299535124387661,-0.4632900380506238,9.89474320293839,-0.084645465269436,0.0567923456606226,-0.1006691309232848
426,4260,-0.0429651048637069,0.0383136183028682,-0.0137038594329576,0.0252384565594357,0.0676387780965201,-0.3639495696260387,9.760736915789826,-0.0722416145485766,0.0403746341550628,-0.0605875962068808
427,4270,-0.0610167460935722,0.0156420347472832,-0.0261055274648053,0.0093240127872992,0.2869504504459836,-0.3611402473413385,9.395826772257172,-0.0693916786180033,0.0477511334149946,-0.1180793447044227
428,4280,-0.0229669442341809,0.0398700777833347,-0.0321223070607866,0.0269659863927429,0.3799412910785451,-0.4969193235843256,9.51752533909772,-0.0439712396562223,0.0436263597650276,-0.1409100066762348
429,4290,-0.014013507719891,0.0581432672051235,0.0166336514281995,0.0447230500713646,0.2865087498669043,-0.2621731017364982,9.823055036866773,-0.045356604162383,0.062197894298737,-0.0819002166513635
430,4300,-0.0329957904140867,0.0580455225920496,-0.0330515322401668,0.035328704672529,0.1948901087372744,-0.3551390043770961,9.626757640909124,-0.0286044525695173,0.0436403160545103,-0.1310269462069599
431,4310,-0.0529486785487676,0.0212484415468682,-0.0372347228118671,0.0100926192974715,0.2918279120557208,-0.2373044789314631,9.131574031346862,-0.0414254098078197,0.06748226489598,-0.1103439599231462
432,4320,-0.0224313012742893,0.0384052946508442,-0.0218272453835624,0.0230259578152963,0.3080991312560304,-0.2715653369079657,9.376856537234964,-0.0557161883092641,0.0410205687624893,-0.0906299333669856
433,4330,-0.0251800793471695,0.0507526183353855,-0.0128999990320352,0.0272199825338189,0.4076362047790423,-0.4570018198950046,9.653080972835737,-0.0424933419854427,0.0542667649520039,-0.1033267516844417
434,4340,-0.0243921943453073,0.0678213968362923,-0.0144657412313655,0.0555491250797116,0.2941257760799509,-0.5139554919884193,9.79759355535166,-0.0575509941632977,0.0390556092912672,-0.0992209322291036
435,4350,-0.0222149689880576,0.0749101867611245,0.0321635602254091,0.0403901048878602,0.2891920862879213,-0.4695186890734147,9.678052899596418,-0.0543974024215504,0.0536850987389707,-0.121007834830173
436,4360,-0.0251133789607706,0.0584942078765375,-0.0129698711397311,0.0212436098802825,0.3464267578453876,-0.4181126646937762,9.638258846018402,-0.0475403728700378,0.0513401574978121,-0.0647933741492677
437,4370,-0.0302606539320196,0.0852019293617608,-0.0101821760545171,0.0168102671226061,0.2156919779315296,-0.3621658984326102,9.72546112107383,-0.0613975447875437,0.0453108993825942,-0.1199386525678219
438,4380,-0.0264953400992051,0.0491025496440323,-0.0087741268626427,0.032857906855034,0.1796206856632377,-0.3555403021034575,9.52602028369993,-0.0696165287450608,0.0322623552564974,-0.077445519779035
439,4390,-0.0381697264234328,0.0567892090750121,-0.0149303673169749,0.0635247115794301,0.4887219809494473,-0.4213597726131372,9.3248628481886,-0.040701859531093,0.0472317910387163,-0.1015662757154432
440,4400,-0.0309155120893828,0.0713099468518287,-0.0097475549203663,0.0472805222921698,0.237371201610554,-0.2440160333311553,9.633189273101712,-0.0514759288212984,0.0622383727120176,-0.1258637223563978
441,4410,-0.0229143357849081,0.0644453986982626,0.0062098328474106,0.0198494415872396,0.2976418885999428,-0.4122182850727031,9.263120650116544,-0.0573823581869204,0.0515735382621947,-0.074062578233259
442,4420,-0.0273273952344243,0.0716481533835001,-0.0200401234089336,0.0352539904867815,0.5283745090880264,-0.4421495360684233,9.65845025585566,-0.0515850967205657,0.0544848386381272,-0.0896095242809043
443,4430,-0.0083623323809114,0.060621796275522,0.0089626652215073,0.0712416943185145,0.4766644997782691,-0.4349358347771441,9.229843983488594,-0.0561467828151469,0.0569709416779229,-0.0744974135102248
444,4440,-0.0239934887156061,0.0765889111785639,0.0022396017282185,0.0516868450258146,0.3114457887689768,-0.5226745678161884,9.46508430576247,-0.0754355451943125,0.0413760531141435,-0.1010656751768099
445,4450,-0.0202218598963724,0.0629645124051007,0.0040055588936854,0.0403483598302102,0.4400426475191042,-0.3575121303209065,9.489992243277426,-0.0865489479712009,0.0647781505040226,-0.0860291615903873
446,4460,-0.0166837561464003,0.0682773019258043,0.0276752793341405,0.0512046837409807,0.3040747317513196,-0.4181947415410053,9.333278402379904,-0.0526334666156981,0.0378984247368207,-0.0980914218616732
447,4470,-0.0281806744388671,0.0585538254354642,-0.016528322134455,0.0436590902028331,0.3698921747510084,-0.4656922667732578,9.0886234412365,-0.0706781727094096,0.0614474664770574,-0.0761653677517957
448,4480,-0.0370188545665394,0.0618544185831661,-0.0131012754185523,0.0496804425968083,0.4836085435635514,-0.3207039157982279,9.331846072011173,-0.0549452150916733,0.0622209892087851,-0.0906346783262022
449,4490,-0.0275282461536714,0.0647269564286249,0.0087675293096018,0.0306802407861412,0.375497165997007,-0.4153370606008035,9.347631825939564,-0.0936897758550276,0.0634771317579762,-0.0762992597872711
450,4500,-0.0271368745406548,0.0482371854577588,0.0042224927488784,0.0347376270658787,0.252657230619981,-0.2507138768679355,9.432298954299448,-0.0979793797997415,0.0491265524300052,-0.0843787724850226
451,4510,-0.0119060956610113,0.0563518450236585,-0.0065930415376608,0.0644171909050622,0.3537734961248739,-0.2671575710659146,9.282334410498494,-0.0403468251462686,0.0487125207755478,-0.0950265855107145
452,4520,-0.0266762791370777,0.0623087691835928,0.0007383561982285,0.04979959756296,0.241380616777403,-0.4128897374846885,9.32715204332326,-0.064559288229641,0.0348992165343945,-0.0924898175470403
453,4530,-0.0118810560720192,0.0643616164339237,-0.0192766099252302,0.0232204035618514,0.2958839241196965,-0.1987470461433176,9.475019776655872,-0.0866935122418722,0.0579847032238979,-0.1028222036559102
454,4540,-0.0417489430847265,0.0525858761037024,-0.0063561068056258,0.0310420286703546,0.2874230270965294,-0.3774677106485311,9.40833971619076,-0.0867372545447451,0.0446820411402659,-0.0986250960851196
455,4550,-0.0324127343588531,0.0357530455222922,-0.0208487529680235,-0.0015982683204935,0.2928416384446746,-0.3837216914546322,9.181540609643427,-0.1132271836950915,0.0550628153873274,-0.0868160687222998
456,4560,-0.0079947117503147,0.0765739874413098,0.0044626767074417,0.0455546730579582,0.2771760787281256,-0.3718134444349371,9.331987891983456,-0.0801177916812925,0.0597685122742884,-0.0447078496723576
457,4570,-0.0297186948294131,0.0620685147648752,0.0022196405465121,0.0373209328937474,0.2487673608915938,-0.2791962243279723,9.822992147373562,-0.0672053456922687,0.0426687700127326,-0.1133881211123784
458,4580,-0.0327589848336964,0.0417701346371805,-0.0144586539593117,0.0145247047187328,0.3042566639219232,-0.3644318783628686,9.253514614497188,-0.0999678929194783,0.0482999144939607,-0.0931166249692581
459,4590,-0.0206978185335535,0.0488388132401186,-0.0104661942163758,0.014629459463668,0.3654479160425289,-0.3548639472142218,9.44287399849092,-0.074507602340791,0.0381300423184158,-0.0687699254806357
460,4600,-0.0314839591064481,0.0596826412894484,0.0035067224615609,0.0507253235367237,0.1904226232369945,-0.4206191803477574,9.078005264411162,-0.0672297158568498,0.0605153061883073,-0.0607844513183745
461,4610,-0.0264280405928799,0.0618005698916049,-0.0154198391261788,0.0132527172123682,0.3473552523625147,-0.2215309879765482,8.88663367259515,-0.1090380768576454,0.0502384247090633,-0.0879476890070442
462,4620,-0.0274990936916163,0.0468634325282194,-0.0150823516059076,0.0311495700379915,0.2592622866414243,-0.5092418117430818,9.576047237072896,-0.0769390939632731,0.0534514800854738,-0.1407245755323289
463,4630,-0.0281714726685833,0.0362384129685312,-0.0114555143496907,0.0068643429130256,0.3534221080121354,-0.1956176205231504,9.120266685284184,-0.0953566033011243,0.0462398308020184,-0.069357632762681
464,4640,-0.03784045761347,0.0324209868649818,-0.0120996300586746,0.0272783683710344,0.2998121591612628,-0.3995035866219952,9.571323551100573,-0.0701789864566061,0.0444427367410367,-0.0828527014032305
465,4650,-0.0323053024268325,0.0394107173486293,-0.0146283810394394,0.0210202338207522,0.5353844825256044,-0.3586228731799664,8.978443779232345,-0.0589533575758023,0.0422861225668198,-0.0838791209334878
466,4660,-0.0267552255912344,0.0338602369907541,-0.0142419426376286,0.0234081449273695,0.2217712793507869,-0.2277212204939309,9.148549800606247,-0.1011543700811868,0.0495152929973172,-0.1183551888542612
467,4670,-0.060443984738067,0.0427656555376286,-0.006729659517249,0.0453785893297075,0.2288878754727304,-0.307423855348554,9.119375409180403,-0.0380958554144225,0.0530532578063195,-0.0808092280528477
468,4680,-0.0268876313742902,0.0505657137203102,-0.0323454167891848,0.0344933863040191,0.3395105905096295,-0.3688178669802577,9.153812938867816,-0.0742983001840709,0.0490560775072712,-0.0835891255590869
469,4690,-0.0347868723516458,0.0398841096021061,-0.004756781153347,0.0244993615179566,0.3323389019587009,-0.4739745032514391,9.45484772198624,-0.0935346955118116,0.0552807195673375,-0.0786499720734341
470,4700,-0.0378974220571804,0.044463377624264,0.0143239569457613,0.0152791537855107,0.2116240704417378,-0.3641350252947763,9.29466733428228,-0.1104884095103747,0.0509253289390047,-0.0718602202219752
471,4710,-0.0233464694022143,0.0578246339564458,0.0029427746049017,0.0542633843397936,0.2440553824629226,-0.5356311939317878,9.24173433284698,-0.1066838847303002,0.0450389487661502,-0.0600631837365265
472,4720,-0.0232012106931709,0.048768327448771,-0.0117894474352807,0.0354686844714667,0.2355959540188745,-0.3344147613556546,9.269702227219454,-0.1158678337236979,0.0506741975067883,-0.0505177374080718
473,4730,-0.0153116528712795,0.0551603662123674,0.0073124584862254,0.0387194124830559,0.3028083979186131,-0.3382637474625808,9.009492152486594,-0.0815001171045935,0.0698589311785155,-0.1059711138005553
474,4740,-0.0300169398165189,0.0624502529186066,0.0030125809908833,0.0221193677900825,0.1853018707834997,-0.4878953504964748,9.845949365305852,-0.0920558611922132,0.0436149964054564,-0.0793583284983944
475,4750,-0.0347727239798908,0.0585679559440497,-0.0109435779833581,0.0524504586488643,0.2028186581418953,-0.3375627873918032,9.224206457648206,-0.0759753878594213,0.0693573241010374,-0.09636366846908
476,4760,-0.0196696533255915,0.0680757213822443,0.0117695077774463,0.0392140997559477,0.2757427027126803,-0.3858208029720087,9.31699421044249,-0.0928450497466581,0.0500122505864095,-0.1181924587572018
477,4770,-0.0408312598016091,0.0543215541545318,-0.0125485946960635,0.0247940493053459,0.0955564335543919,-0.3503547698299376,9.121888531323798,-0.125864576292097,0.0634078733543942,-0.0765997724724808
478,4780,-0.0232542774389664,0.047424422141668,0.0003061927126365,0.0317788249301678,0.1476076958644133,-0.2991149770426891,9.17472377099535,-0.069838199701927,0.0585425278057236,-0.1166894112507061
479,4790,-0.0269206214728462,0.0525667910651632,0.0037216805074568,0.0182283666754967,0.2111587432868922,-0.2119959804706892,9.353085160118964,-0.0543658769996443,0.0568711636944617,-0.0893332187473141
480,4800,-0.0132299889659816,0.0556414670242467,0.0077951481621042,0.0419226070052854,0.309383278160008,-0.1773329014094131,9.367994838374052,-0.0624216002148193,0.0457047529907144,-0.0529940645052122
481,4810,-0.0058346681176137,0.0706704136240944,0.0130940031342033,0.032205692600589,0.4888398145576902,-0.2756846252860112,9.23483672716305,-0.0756224055546253,0.0520057267848958,-0.0904682420015613
482,4820,-0.0249777440283767,0.0395948544027724,-0.0012870012442733,0.0398770973465855,0.4244944657431337,-0.2970319995760014,9.094515569983129,-0.072708235470358,0.0485734965509936,-0.0658108881964154
483,4830,0.005468942654799,0.061563217937939,0.013568402569983,0.0223254538151356,0.3558595947653196,-0.2638000676931048,9.165870412709406,-0.097868194490073,0.0500407903590594,-0.0699912681577946
484,4840,-0.0142483767363339,0.0507518925453998,0.002915630716293,0.0575350053679986,0.2918528220246939,-0.3477237315761765,9.439723085314338,-0.0938365727362821,0.0254741460274832,-0.0750001921726326
485,4850,-0.0046136825297992,0.0724401712285637,0.0228248355488504,0.0517944480340226,0.373103696366917,-0.2658864048819673,9.441580337385313,-0.1170272070200146,0.0366984065655487,-0.1010762024897478
486,4860,-0.0146612249779235,0.0649243638213412,0.009261950850253,0.04335317639864,0.3418014808458804,-0.2173154163239845,9.245447990409891,-0.1058559961615052,0.0528400780483355,-0.1116083706524997
487,4870,-0.0045821828953903,0.0605592586929871,0.0369521825893125,0.0332185807688466,0.4684248992404599,-0.1281956554649643,9.261053704615762,-0.0911676938452088,0.041334844281869,-0.02490347185955
488,4880,-0.0116707528975748,0.0452794845532902,-0.0160495795953119,0.0407763006025407,0.3591320359363255,-0.3098142070888974,9.192606929850012,-0.0788521856936592,0.0428675768485168,-0.0873680016742745
489,4890,-0.0228693845887124,0.0569913729968334,0.0086891979153174,0.0383172273565039,0.4406144950571748,-0.2871791548945938,9.395804791178934,-0.0951954263196862,0.0542429259670631,-0.1147564567403506
490,4900,0.0190206485601649,0.0728574301440693,-0.0062098019662019,0.0384727448031994,0.2552839809547335,-0.2938592580145976,9.613524463216097,-0.0987294602270343,0.0417714910458417,-0.0827458680119173
491,4910,-0.01347339473759,0.0577389863925127,0.0016084184220458,0.0420363306950269,0.2255659065684352,-0.3011511480967305,9.631738650066069,-0.1100849551213576,0.0590895634840179,-0.0528195629661125
492,4920,0.0011286722997556,0.0568835225776926,0.0446315868548208,0.0425175592917239,0.1023937689734733,-0.2806691581030628,9.109801001891318,-0.0842113994964764,0.0302966401470432,-0.1094574329041364
493,4930,0.0185063588791155,0.0683482239484517,0.003469733625197,0.0274900503251621,0.2633040406851603,-0.3177708230618029,9.29056336516258,-0.1396459722619285,0.044564150398267,-0.1256038809215601
494,4940,0.0147235683351679,0.0603736001787009,0.0188527324380866,0.0370495291817888,0.4698704795490109,-0.3409766010594616,9.200798396442096,-0.0673944012705868,0.0492852742031126,-0.1057729732485659
495,4950,-0.010344623500379,0.0604163870609685,0.021974917916929,0.0406741709680668,0.2652200095736887,-0.3272212996009336,9.401206577671797,-0.1029747628906743,0.0459967603201539,-0.0563118949987884
496,4960,-0.0046403342767485,0.0546286273914489,0.0096555715971795,0.0648143212671513,0.33635707305683,-0.2813566422434169,9.427110162083112,-0.1237065156567036,0.0669557795478484,-0.0389472081791144
497,4970,-0.038679235776886,0.04290571601779,-0.0268262858303061,0.0167928078885352,0.3042280304092813,-0.197980377540829,9.381271377666916,-0.1074117383903348,0.0518546121890207,-0.0976655768599186
498,4980,-0.0110676144331396,0.0570707303690413,-0.0160754060576219,0.0471745593027194,0.1662078511665079,-0.3889679508101441,8.890727274116754,-0.1371833917148785,0.0451642804545993,-0.1038630470878461
499,4990,-0.0016540001538626,0.0621479589237904,0.0082050510997897,0.0482989052256016,0.2436123642045221,-0.2876128632353227,9.23876099698255,-0.0843880967439484,0.0441160735828881,-0.0562513543305753
500,5000,-0.0349572402616759,0.0487704556082546,0.0027530213600134,0.0327132872599682,0.27140993071455,-0.2304099658996183,9.261387427867623,-0.0808436363298596,0.0290275352461703,-0.081161821582503
501,5010,-0.0246177125288866,0.0518600163523485,0.0042868161560321,0.0568863733692744,0.4523884492442468,-0.2608928407412265,9.007987485220871,-0.0978904391724621,0.0419811378013723,-0.0805435243143107
502,5020,-0.0205039481840641,0.0544615700378074,0.0116679138761123,0.0375624636836985,0.3231551196009555,-0.2360092591797545,9.418896202497786,-0.1028175528227785,0.0651599304997924,-0.0968459174779454
503,5030,-0.0245255433508607,0.0377236847610993,-0.0065344857358104,0.0559041935391248,0.1418469193734891,-0.2816720759929409,9.133717086327476,-0.122657141692217,0.040084153192828,-0.0672913500406222
504,5040,-0.0054523312449666,0.0416296931338906,-0.0004055722935343,0.0141453417576582,0.4245631544147997,-0.3898215589531384,9.334228961714231,-0.0475555998434106,0.0402523660196111,-0.0824414949692525
505,5050,-0.0359264793859949,0.0641288925912986,0.0046457530942329,0.0345439483285784,0.2845790102278588,-0.359150817049471,9.367652338798385,-0.1080192022817181,0.0451165314703227,-0.0685165988256311
506,5060,-0.0227109983802454,0.0447270956705448,-0.011821957372649,0.0109724531730313,0.3024655432630654,-0.2669594303383646,9.32200991168314,-0.101153108507132,0.0394956797255948,-0.0634332647459286
507,5070,-0.0263121550172852,0.0534551292823758,-0.0034154570003374,0.0170248164667034,0.4233817983810193,-0.3135871377908154,9.57126896544777,-0.0910040076940772,0.037556515357474,-0.1007326545424879
508,5080,-0.0140499001761837,0.0221467844524708,-0.0159595535270298,0.0175814618803195,0.215725358293413,-0.3896769918288367,9.329234325289704,-0.1271858892266313,0.046097165300288,-0.0421143893218561
509,5090,-0.0393957123144268,0.0323517035521819,-0.0074694718604638,-0.0063867851845926,0.1717163021962012,-0.3292068669396444,9.534501981897913,-0.1074514694304353,0.0407182245233669,-0.0661006780266106
510,5100,-0.0201629266078809,0.0259822215210139,-0.0285448969837848,0.0279592009576853,0.2863535555145821,-0.2557978348165576,9.419197276142611,-0.0760003210069743,0.0461054508932056,-0.0525832774584981
511,5110,-0.0426797562723767,0.0387219845537789,0.0016447783178391,0.0406462195405681,0.2072974117493342,-0.2156054257349104,9.21592128119052,-0.1137473633982249,0.0474130411047773,-0.0849241933065143
512,5120,-0.0169984733878016,0.0078863026739929,-0.0187279020044877,0.025323198964731,0.2133962496524634,-0.2844936892337563,9.278250240071758,-0.1177526698220397,0.0461703055265368,-0.0398100094779699
513,5130,-0.0363713061975178,0.0412452689245968,-0.0105101700120074,0.0107882604372672,0.2627863153152794,-0.2187326009208737,9.204827775047235,-0.0892722763334116,0.036196250468117,-0.0749682662018866
514,5140,-0.0359116734614559,0.0281342687601282,-0.009715212483731,0.0223138759540731,0.2088206980123995,-0.2060558970830525,9.192136473080714,-0.123402961568559,0.0563077353815721,-0.0620677944218885
515,5150,-0.0125364206115856,0.0408575501711601,-0.0037299199285957,0.0237801154487826,0.3705079247891073,-0.2642486064778436,9.591978617771318,-0.1091612755230018,0.0579846856296776,-0.0503304720117123
516,5160,-0.0407569062896013,0.0296928347316507,-0.0405755035138765,0.0263865719241867,0.12709262531305,-0.2740467353109274,9.529747799160509,-0.0595416085115851,0.0443288818522609,-0.0528632343379906
517,5170,-0.0411184857708165,0.0221579869888138,-0.0368940663121536,0.0039197747313367,0.3096360154371487,-0.3441305247024523,9.341073054031842,-0.0938839440294731,0.045746272987034,-0.100207247200293
518,5180,-0.0308053412113835,0.0177270495674433,-0.0244661239260472,0.0014471269674848,0.1460176835648266,-0.3099953509247719,9.12349096671844,-0.0786956174088399,0.0363094162407475,-0.067676327664588
519,5190,-0.0230825307325975,0.0253707959106498,-0.0074293594046125,0.0085059058818839,0.2599253790152982,-0.2455522444989908,9.19690764470566,-0.1250554649630589,0.0459027382246176,-0.0791908640619162
520,5200,-0.0461613501055509,0.0072353211553,-0.0154037459116641,0.0191406998191535,0.121378644407321,-0.1508951813125988,9.088568554419204,-0.0825320122062289,0.0483629407980049,-0.0690031957261849
521,5210,-0.0255887204723609,0.0099515970510748,-0.0125470970635604,0.0032313368125807,0.1871994050186254,-0.3302743122020465,9.472226808919762,-0.0548144572814597,0.0215383424914785,-0.0476708734735318
522,5220,-0.0227087016537218,0.0253046829854084,-0.0384552072225176,0.0112782267600137,0.1562588546918042,-0.3767251042400388,9.366725551026812,-0.1016374628985763,0.0232491274185362,-0.0577433184870929
523,5230,-0.0306120566975138,0.0077346616373637,-0.0414390407802778,-0.0008963724346817,0.2523195211226333,-0.2216770371994718,9.584025413900257,-0.1045797779968558,0.0395643247300437,-0.0584204632346249
524,5240,-0.0519703585978218,0.0205421834379554,-0.0257917682754473,0.0195176366070384,0.2431202451516882,-0.184178417188711,9.310102799451808,-0.1047106672874472,0.0414921032011135,-0.0549408306880954
525,5250,-0.0310388089552502,0.0204898010626066,-0.0247522528619259,0.0156288797320345,0.296746557226843,-0.2762496169610152,9.15036736212904,-0.0937522470280918,0.044635560623454,-0.0699141000087936
526,5260,-0.0167696890747301,0.0168872665869985,0.0119952208087539,0.0177441703173731,0.1316606121773694,-0.3518643536365518,9.42052023133613,-0.0686040271877482,0.0367104301843706,-0.0615737199761838
527,5270,-0.057007177083146,0.0264837711539601,-0.0121139953703049,0.0105507315052138,0.2431140174569921,-0.2458787523268334,9.18962821113423,-0.1284433700307741,0.0487361597929396,-0.0624707801945681
528,5280,-0.0183771446816209,0.0407012612932272,-0.0242500328462268,0.0233532703267689,0.3482738379750436,-0.2005605845395032,9.175780983071238,-0.0921038240454253,0.0424149611534201,-0.0758021873591124
529,5290,-0.0123281523986911,0.0572644367507746,0.0001418508991932,0.0270539308441031,0.4521629795679166,-0.1846829850885611,9.265223349420584,-0.0972048803768716,0.0392337697692262,-0.0376653921373672
530,5300,-0.0321616662416181,0.0305075939448957,-0.0120938651909081,0.0160189520734613,0.1461923561462279,-0.2546956825781609,9.141462834093849,-0.1299963768109345,0.0272053217107478,-0.0411836849315187
531,5310,-0.0130860268419448,0.0352786996378771,-0.0178619285571885,0.0241738863949449,0.1226394216071041,-0.2159197435682669,9.497862030050722,-0.1203752242184761,0.0575046805204335,-0.0503177498356041
532,5320,-0.0306738125169595,0.0295497448312535,-0.0090602070454979,0.0329447044728064,0.216005984183424,-0.2355677009572771,9.502837847277329,-0.075582787937923,0.026226007499299,-0.0375887490967094
533,5330,-0.0384257030606171,0.038815207887411,-0.0087215009407147,0.0246950987156827,0.0383122201065296,-0.2343547710756367,9.340074973143423,-0.0851588428238764,0.0377054722044427,-0.0087037266768246
534,5340,-0.023716415695387,0.022147351985012,-0.0001531087045785,0.0330036251408301,0.1382701262928036,-0.1721399007046717,9.341825617217854,-0.112618681431349,0.0338231916502976,-0.0224255731891042
535,5350,0.0018397956237757,0.0385971972528928,-0.0049081561806741,0.0126438373733477,0.2578441983701999,-0.2876931751960383,9.129600061572416,-0.123446061022246,0.0308609805623519,-0.0536388907132331
536,5360,-0.0130954404134381,0.007098789041335,-0.0090179193226351,0.014159688578165,0.2798374899282785,-0.1773257832710318,9.354410926159485,-0.0622311987511065,0.0367558884138643,-0.0929909387322315
537,5370,-0.0155498983093987,0.0192627629766628,-0.0122018268640472,0.0220295343509194,0.1809085428057187,-0.3454651681800116,9.41589471765982,-0.0935087328919852,0.044520562063548,-0.0463034804423781
538,5380,-0.0285008199159544,0.0375889364169561,-0.010110784468069,0.0106593623868874,0.3075267651344838,-0.1605292249030897,9.512833789826962,-0.1240219631931225,0.0546690443840962,-0.0977678831982811
539,5390,-0.0263500896663595,0.0462303210164989,-0.0220464481243895,0.0156217286138604,0.3183516268937406,-0.3288767860096456,9.477726263764644,-0.027536136388512,0.0360702929761003,-0.0765223384832049
540,5400,-0.0244505210037157,0.0168556925636682,-0.021341086402575,0.0107140133841759,0.3381900282235497,-0.1899844118271632,9.459686752026084,-0.0706028380630506,0.0407300022176968,-0.0190824337243478
541,5410,-0.0279997014770901,0.0437402699476025,-0.0252737056064831,0.0137164366877654,0.2948825146245319,-0.1782467569372955,9.544186821565122,-0.0848571877992898,0.0344293096177586,-0.049543742127443
542,5420,-0.0146058682874311,0.0307616678679566,0.0015990009981236,0.0069026922578025,0.305498990703353,-0.2717093957211973,9.42940516875863,-0.0992323015585371,0.0293022522790167,-0.053152547458845
543,5430,-0.029826608868703,0.0263941766791515,0.0076220450720753,0.0193939217069538,0.2282288770352643,-0.2544193060049766,9.2245907624818,-0.1001386684681406,0.0283085490394203,-0.0389249174052154
544,5440,-0.027261536808859,0.0101755188236077,-0.0159004875488976,0.0135697981562617,0.1231069860505313,-0.1871282831375001,9.365509104663278,-0.0863745755498533,0.0458251601295446,-0.1013486716317706
545,5450,-0.041708879175018,0.019659463571018,-0.0146259536908592,0.0105555523453055,0.27068817953392,-0.2609886697899667,9.451530819168136,-0.0695248788142603,0.0357991148090839,-0.0650014638780811
546,5460,-0.0286069288942223,0.0141390454576806,-0.0118752746453814,0.0193033221397844,0.157975478539968,-0.153087653402766,9.361145977830182,-0.1210259007318491,0.0171895941619792,-0.0747713475307487
547,5470,-0.0315632222402451,0.0248431130844533,-0.0171608003919623,0.0097255137922608,0.2853262920289726,-0.1612783125729787,9.081523216418216,-0.0865470753438226,0.0225062106134985,-0.0579501032699633
548,5480,-0.0342568940640599,0.0219820215908426,-0.0287663870725138,0.0160134862522612,0.1479595149945658,-0.2321695797715682,9.124057223085163,-0.0891987576388387,0.0300979925128361,-0.0792769790418968
549,5490,-0.0196430664202922,0.0169846303476169,-0.0200738670229395,-0.0045173746098385,0.1560213324113732,-0.218543595849683,9.6027841504784,-0.044084633454962,0.0121701569425146,-0.03729868586528
550,5500,-0.0193293004204619,0.01620469553927,-0.0310108917334468,0.0018958178093082,0.1005040862412306,-0.1444737215865271,9.325187809931371,-0.0698377837079316,0.0245097064517164,-0.0758450239214602
551,5510,-0.0164573394706096,0.0068086878765465,-0.01627992964465,0.0030664998123917,0.1952423522989013,-0.1883221391325175,9.40705750426346,-0.0666828595193464,0.023884957222467,-0.0224839186273408
552,5520,-0.0346076570613261,0.0184676774414803,-0.0329933229161162,0.0052447374091705,0.1483516499115079,-0.2005823002157309,9.378779226101726,-0.0548473920945979,0.0388653000880751,-0.0169371908063695
553,5530,-0.0346208959649189,-0.0003944754865731,-0.0352667820968569,0.0072303262293342,0.1088173957569073,-0.2766416734258891,9.612143139869492,-0.0882797947549835,0.0311895750460856,-0.0276157160120891
554,5540,-0.0478377356591381,-0.0139333254768845,-0.0268556026416861,-0.0124631482835355,0.1979017228177803,-0.1003794737417924,9.12964851224927,-0.0923994703391371,0.03792345030535,-0.0674794282289102
555,5550,-0.0119787477630732,0.0103950922031399,-0.0163351536232416,-0.0016812452704864,0.2403677226477632,-0.1593175539847794,9.26057082974599,-0.1149910556652172,0.0346637179733906,-0.0581309769633189
556,5560,-0.0479558201630205,0.0154873320855401,-0.0367268453725347,-0.0109895538863781,0.0623797067932482,-0.1328845530371425,9.601631226891184,-0.0759537629794068,0.0104182943818465,-0.039545319101402
557,5570,-0.0505090555024469,0.0051386836032268,-0.0398974100166217,0.0025026024330588,0.3337721352226732,-0.2341446740998889,9.29139522299216,-0.0818644222073423,0.0380043310759037,-0.0636935282424083
558,5580,-0.0586169752119121,-0.0158137959168099,-0.0341408785841334,-0.0280977397037265,0.2039860405718126,-0.1547502588269215,9.335911075386926,-0.0939245795595043,0.0271122042985422,-0.0648148226901021
559,5590,-0.0463921993316225,-0.0096694292415881,-0.0448443195369628,-0.0282765777827738,0.0607970512296688,-0.1734218647669887,9.215528876444845,-0.0598392182636078,0.0340145937595018,-0.0136767784417526
560,5600,-0.0435960331951435,0.0170527311931821,-0.01005326125758,0.0036773252811368,0.2447704801711125,-0.2698744767272069,9.159281356864485,-0.0697615021107649,0.0257409159877974,-0.0167419026586084
561,5610,-0.0657088924332639,-0.0014048469730464,-0.0371644056578042,-0.0068325576415688,0.1253496784112767,-0.1528313870127144,9.322378770181762,-0.0820255070721218,0.0234868624420823,-0.0149085745494617
562,5620,-0.0304118812166759,-0.0119516377761351,-0.0264386443480679,0.0076372238452434,0.1545808449996597,-0.2353174615464169,9.633895285892883,-0.0482705071807649,0.0433882400304306,-0.0258694183596525
563,5630,-0.0533995012513821,-0.0037868066647897,-0.0337434110985735,-0.0165061270146073,0.327285815760966,-0.1889549442411583,9.40072283032473,-0.0633370528329674,0.0457509775232745,-0.0027513060728052
564,5640,-0.0505721511685526,-0.0166642908310176,-0.0263877848252943,-0.0209172286050828,0.1300833841675161,-0.201431735994711,9.385427622817613,-0.0802457024742987,0.0207419823789977,-0.0362111510978741
565,5650,-0.0559773543048768,0.0042796537812584,-0.0422806949286942,-0.0089580142877071,0.147088137982943,-0.091668748293495,9.759908032621642,-0.0696670283894143,0.0203840944890553,-0.0324255185472995
566,5660,-0.0311485026044289,0.0007509941880974,-0.0425167668196099,-0.0264350303531113,0.1803813948465759,-0.1500056693736148,9.763919316128732,-0.0620594163855595,0.0137470999795871,-0.0944615561233123
567,5670,-0.0725417339677455,-0.0113414836091042,-0.0404096457595173,-0.028458339911373,0.2707629496465289,0.0236783914657544,9.286293602675515,-0.080670123098531,0.0266359653056172,-0.0314860704469849
568,5680,-0.0569841445802437,-0.0121771244516758,-0.0341016743198287,-0.0369409654312055,0.2582277189326011,-0.2633390582832066,9.129289017521554,-0.0864127209063159,0.0406022518597779,-0.0575073404601308
569,5690,-0.042377626207636,-0.0162711478943673,-0.0300149137713063,-0.0336842756826658,0.0982060244019887,-0.2257965724639943,9.160355993153953,-0.051385517949323,0.0237533643600131,-0.0476906413069534
570,5700,-0.038695318037048,-0.0177941972014785,-0.0513194373217231,-0.01950644667769,0.0374720411383518,-0.138830197898958,8.911543184044373,-0.0758417566882292,0.0213830149295994,-0.0083413083087126
571,5710,-0.0638497816503768,-0.0109209285872316,-0.0349641192628128,-0.0342266659768686,0.0979507667240177,-0.0745406615332964,9.540752908343611,-0.0811184217188789,0.0318828232752502,-0.0351636224363411
572,5720,-0.0312401939276658,-0.0082288367195127,-0.0277763601302098,-0.0151477783141089,0.1192328308146499,-0.118160914153196,9.189135386511408,-0.0928282002932342,0.0252840728158973,-0.0057598254340641
573,5730,-0.0601709170065717,-0.0111930854219867,-0.042188028195236,0.0018131901079229,0.2044768533100817,-0.1528916966627718,9.458023311915458,-0.0252280781967676,0.0235042466924953,0.0238475942228679
574,5740,-0.0376970548445853,-0.0025202090419801,-0.027363007252365,-0.0277779971981487,0.2262383911898136,-0.1085503393219657,9.532127169809211,-0.0568207172342324,0.0230383031529925,-0.0013472634153544
575,5750,-0.0426089349113435,-0.0105238308708391,-0.0473258472157236,-0.0248018032372395,0.1332274889432806,-0.103562153844037,9.410680408708474,-0.0968766911379329,0.0327755290629595,-0.009153636182166
576,5760,-0.043935904074604,-0.0112966170903559,-0.0580348904391298,-0.0318627041022294,0.1534569465250723,-0.0989072983403872,9.234351431344548,-0.0462027455657111,0.0285580609808512,-0.0217915037847456
577,5770,-0.0510385758398654,-0.0113645564937579,-0.0296442603993908,-0.0248793985101038,0.1005168573647581,-0.1076489542244656,9.484988734490615,-0.0564360062828894,0.0252373788317097,-0.0691950431451827
578,5780,-0.0457744545720844,-0.0134371345087138,-0.0193796070291675,-0.0167648923821284,0.1924745180073247,-0.2050707502134412,9.47430118756396,-0.0706143300640454,0.0099765119874992,-0.0188454458821831
579,5790,-0.019863702544202,-0.0190285822330496,-0.0035352486254736,-0.0232505598404117,0.2133641137748987,-0.1138984942720271,9.468358305388682,-0.0747434539531163,0.0200298541406918,-0.0299790921559538
580,5800,-0.0413975214179152,-0.0106080650466193,-0.0283348615280858,-0.0080781629563727,0.0349430363359211,-0.1148342326420602,9.349293932206445,-0.0347398714340797,0.0106145954103999,-0.0502796018947811
581,5810,-0.0360178287103235,0.002913717077489,-0.0383805376858575,0.0072505497573306,-0.0141307358273908,-0.0765483349472639,9.632934191076496,-0.0471790222567204,0.0282998667435396,-0.008044127113746
582,5820,-0.030586587203919,-0.0207403759479771,-0.0368875600972871,-0.0145706692529259,0.1493991537120838,-0.0698736120329323,9.437147408507672,-0.0431605381220772,0.022975110175901,-0.047756246190663
583,5830,-0.0340015557466768,-0.0034011505603174,-0.0367093923825001,0.0037027961768643,0.2197514492303694,0.0150880682237781,9.702384763113413,-0.0440279089138072,0.0344093256090713,-0.0720098957812471
584,5840,-0.0279365167269487,0.0096468881076372,-0.0227700402936068,-0.003791804394419,0.0875654959727145,-0.084746217258078,9.480447919010512,-0.0754288348273369,0.0070377791055058,-0.032891877739851
585,5850,-0.0434485696796628,0.0016911238002051,-0.0245686458636737,-0.0011005298984636,0.0309145533046745,-0.1551964440504021,9.334486733063777,-0.0442578306730053,0.0443594579839411,-0.0490450389838264
586,5860,-0.0206148756137316,-0.0072958151411139,-0.0082849069269628,-0.00661288247096,0.0449311278989188,-0.2139660930146568,9.667322327687508,0.0088184574635063,0.0382096139562793,-0.0307541546601398
587,5870,-0.0138483860858199,0.014709074310889,-0.0262374600319553,-0.0191552552226811,0.0741207749708251,-0.2164630583803742,9.396806225844864,-0.0901649501690882,0.0334069260822051,-0.0535732798470167
588,5880,-0.0214650414735292,-0.0114478818186725,-0.0273745724981854,-0.007774729985444,0.138011000802906,-0.1960756025098896,9.527052514443238,-0.013824909489163,0.0264470469301371,0.0023080875631085
589,5890,-0.0123941723606717,-0.0040023053421065,-0.0294438380909528,-0.020663912118252,0.1682218882094252,-0.1309778333995153,9.850107452602186,-0.0334770192376355,0.0157195142778881,-0.0210141892373413
590,5900,-0.0228120583743642,0.0115277611353028,-0.014885625524571,0.0024974859886377,0.0725834572177583,-0.1116610039971338,9.526362628386696,-0.001923886885979,0.0293311767815058,-0.0479402087959895
591,5910,-0.0163151659167164,-0.0035655688065888,-0.0144446442392138,-0.0381378328932102,0.0609561390719894,-0.0687193460880744,9.794985268345064,-0.0108844782324986,0.0086272976491245,-0.0258051224399623
