index,elapse_time,susp_fl,susp_fr,susp_rl,susp_rr,acc_x,acc_y,acc_z,rot_x,rot_y,rot_z
0,0,-0.0319379559803542,0.0107615669627678,-0.0131248193535045,0.0302550921411753,-0.1976672783565886,-0.2972352269048778,9.582196847157256,-0.0857864655294694,-0.0635890346041101,-0.0452418255569169
1,10,-0.0016796847283351,0.0025033255397542,-0.015853997242691,0.0064299018531337,-0.1160287187009508,-0.2458864773110577,9.51133743803272,-0.1092279203973192,-0.041868040235136,-0.1284946757689105
2,20,-0.0397726924330204,0.0249330788633583,-0.0293536193042774,0.0085900760786334,-0.3403870599837034,-0.2799662933652816,9.112872587262288,-0.0891535320857841,-0.0316065867935348,-0.0795187442768348
3,30,-0.0134409373431323,0.0252914066184774,-0.0131768639497099,0.0346806186897281,-0.1400549942530208,-0.3616884263753951,9.719221247550331,-0.0464674401271302,-0.0318686045340175,-0.09055113704244
4,40,-0.0399669025385943,0.0117182285535617,-0.0143412403147935,0.0175193030702423,-0.2517227036754317,-0.2238975842607128,9.03112361193525,-0.112168669412307,-0.0411892933921711,-0.1045880070058359
5,50,-0.0295317138073647,0.0437791978270547,-0.0091146521799818,0.0289762254848417,-0.2685179228569968,-0.3976304569436298,9.408574042770969,-0.1236956672394127,-0.0456989603146654,-0.1247878901880317
6,60,-0.0258214188774243,0.0161806232564607,-0.0113348165678923,0.0131961474680183,-0.0779253164609204,-0.3365599438609652,9.241575106228836,-0.1096030097796945,-0.0451468914817511,-0.1226788892502397
7,70,-0.0172416238782572,0.0243382240787114,-0.0069155463625928,-0.0092442466144865,-0.1898613641745881,-0.3136947797798869,9.31290158624927,-0.083960267682577,-0.0531201197652441,-0.0741014640597989
8,80,-0.0350057393750926,0.0122893474305463,-0.0293374998858166,-0.0098914131945798,-0.1655923635098726,-0.3775206870680933,9.47122714131115,-0.1064169635007308,-0.0319288449954064,-0.1022843788317639
9,90,-0.0243808946402457,0.0315031330475108,-0.0087400975048454,0.0259297714957189,-0.0601267741736188,-0.4037003039375042,9.327747691346197,-0.0996108250494156,-0.0248050255147864,-0.0842851581681605
10,100,-0.0241877154454753,-0.003784195853869,0.0004596025563664,0.017308023574997,-0.3082591025964361,-0.2986083900078667,9.300406375859623,-0.1018005104754,-0.0493160134934071,-0.1233679950242074
11,110,-0.0274536819244327,0.0197757596913729,-0.0224638521593278,0.015962478791856,-0.2435574263078011,-0.3958596566218295,9.395249577257838,-0.0958532686396469,-0.0552420594368813,-0.118147330780122
12,120,-0.0155586018799913,0.0260214721489891,-0.0330370768187088,0.006248178950486,-0.3729825651599727,-0.2887945086695925,9.436145456569792,-0.0759844818292032,-0.0310342952213328,-0.0597783074599298
13,130,-0.0248413051448351,0.0053371621014523,-0.0134200928621178,-0.0236974918204159,-0.3109809495077931,-0.2918147887175658,9.3057337208209,-0.0798605274688831,-0.0463610333946115,-0.1028727197918867
14,140,-0.0214794270316356,0.0015857130520453,-0.0243934051070361,0.0155106148728615,-0.0821228019095516,-0.3139987884766661,9.694574058687625,-0.0590557844920076,-0.0223416485033009,-0.1024902872645542
15,150,-0.0045017169919322,0.0270027984724983,-0.0065972079303156,0.0001016699362027,-0.2522430942805768,-0.2409536016629283,9.04714026607798,-0.0874479029614955,-0.0647404500399969,-0.1117930160549718
16,160,-0.0324907198343178,-0.0120405643529713,-0.0287286814490766,0.0080380899274716,-0.3397616340567242,-0.2082383068292447,9.273422761179212,-0.0874497873827529,-0.0523973452875047,-0.0765417265319275
17,170,0.0024869103882424,0.0250851160628721,-0.0466353668899336,0.0241115753488164,-0.1536121473973823,-0.3216994298867464,9.109211941319078,-0.0900325418206116,-0.0539935753005746,-0.0734248929334388
18,180,-0.0118053165783754,0.0198167790105269,-0.0434220186072683,0.0021692358737179,-0.2922612908255119,-0.3781894658985134,9.442265725598848,-0.1379834482367646,-0.0193490284634694,-0.0642903801503535
19,190,-0.014769748814805,0.0344237070346208,-0.022090209632646,0.0143630079250854,-0.2355257828928015,-0.4245570851720321,9.821093441188449,-0.1131177172162168,-0.0405943961917207,-0.0608308447804253
20,200,-0.0185397802465075,0.009563730796293,-0.020716095883426,0.023125068846032,-0.2798511860863387,-0.3714001566078988,9.291327435984662,-0.0700638155827317,-0.0558011298703696,-0.068942614387011
21,210,-0.0176069382647626,0.0227725715970631,-0.0054241568871755,0.0076095334376722,-0.2109400255677311,-0.3522509492699553,9.464284510990684,-0.0889145864099404,-0.0343061670035858,-0.0697765287998808
22,220,-0.0137490102128707,0.0259725298674952,-0.015601751037957,0.0291691319943793,-0.1408185056254705,-0.3795149319150531,9.261562128505188,-0.0722081132457827,-0.0404434565714882,-0.0705691814917442
23,230,-0.0162544954344617,-0.0095663767757161,-0.005844661770385,0.0217386684398182,-0.3379440520181433,-0.4498607288827672,9.6853391480884,-0.091431605509967,-0.0553557336265879,-0.0869241738857986
24,240,-0.0083773507957518,0.0314143700772105,0.0195723843875909,0.0061949289347908,-0.1823924886139867,-0.205805781804982,9.44538950983848,-0.0651708441964128,-0.0486730241868898,-0.089228642235872
25,250,-0.0254686378439296,0.0401224234760743,-0.0096318332717118,0.01790264855013,-0.2747777822360706,-0.381735031965424,9.250967049978744,-0.0730109593478928,-0.0536282808478808,-0.1213398673537031
26,260,-0.0105127525886856,0.0371312768644957,-0.0026425102858976,0.0160051768536351,-0.1655867536623017,-0.2190132406863691,9.446712244431204,-0.0960989986431853,-0.0225619197552761,-0.1160207097635614
27,270,0.0017459595291103,0.0153295790677159,-0.0209176511951835,0.023836987917907,-0.0749836802223535,-0.2680322257856962,9.132277650897198,-0.1005609332465964,-0.038350586970633,-0.1165314782282248
28,280,-0.0166815109858264,0.0151197139013069,-0.0137152168844823,0.028647702951363,-0.1736599834599669,-0.2264581321804407,9.395829196511112,-0.1080534954942,-0.0514778318306145,-0.0885372640183187
29,290,-0.0079677577443385,0.0235234702143038,-0.0080319702519205,0.0155200001700606,-0.4381247016083112,-0.3408438180495038,9.692898103981651,-0.0932018500607013,-0.037087083477683,-0.0533350399292563
30,300,-0.0229441930113372,0.0085786211233797,-0.0095465542450778,0.0190747536331094,-0.332992585389769,-0.2526894476356117,9.194833572293994,-0.0968009323566081,-0.0436540451163934,-0.0831555372509048
31,310,-0.0103890446580104,0.0105251923495702,0.0018808151076966,0.0289092969711937,-0.2445763123959718,-0.3288243661297807,9.078236470345573,-0.1083658328370223,-0.0413011698401237,-0.069945838214462
32,320,-0.0089595628414215,0.0287827908098594,0.0047252592620303,0.0167409505892116,-0.1749444288319201,-0.2056455407645807,9.177712227467747,-0.0972643984651201,-0.050462938476101,-0.1262443615234922
33,330,-0.0095908486459396,0.0038370653514778,-0.0043055376990814,0.01230518380182,-0.341956960541175,-0.18543084911127,9.432985185221074,-0.1284888413355376,-0.037873657169815,-0.1154386398653824
34,340,-0.0084357632432195,0.0178724678426953,-0.0019213449645754,0.0088138880887379,-0.2506216760809634,-0.2470633045489838,9.47704451870557,-0.0628072942338823,-0.0241083166140821,-0.0919901415297602
35,350,-0.0131879863634854,0.0147373846456188,-0.0064325087964137,0.0282091123684562,-0.4150751678560022,-0.2800490865062935,9.629996859490134,-0.0872606558728159,-0.0313351961399579,-0.0599467989447635
36,360,0.0047532882400779,0.0235412283099708,-0.0028545524069506,0.0273856846952942,-0.1833847982562917,-0.2327406522418854,9.678971764892236,-0.0695958241269206,-0.056571976563675,-0.0776366220170381
37,370,-0.0121612278350687,0.0241841279971369,-0.010422365382823,0.0224827022425647,-0.1165228099730351,-0.2200572393910706,9.433188058053862,-0.0746253770887196,-0.0272324046053391,-0.0737236658815971
38,380,-0.017321106774451,0.0100279859684737,-0.0008860203035161,0.019639743287489,-0.4158411720458361,-0.3194012146633114,9.307190665871929,-0.109253013985049,-0.0328270600865601,-0.1023026608137871
39,390,-0.0290830002192867,0.000849861010126,-0.0056607873487335,0.0234108074764376,-0.0582346902348973,-0.3591534829453496,9.256707749074051,-0.0750350445224999,-0.0335450759224111,-0.0878985314443051
40,400,-0.0257406436902169,0.0133744423851284,-0.0175924304231798,0.0183720328770099,-0.1958639521161867,-0.3225863137252615,9.356657527780644,-0.0776228085944838,-0.018233641349566,-0.0580865067775983
41,410,-0.027757126770831,0.014911427381287,-0.0054915644214885,0.020124519457562,-0.2363154354704371,-0.1314291112432605,9.607371801509611,-0.0909343345668338,-0.029865741394797,-0.0890418078398611
42,420,-0.0464361944418092,-0.0227468532690679,-0.0274501219303034,-0.0087691411441282,-0.0585479346459189,-0.2507117294717342,9.42895253076616,-0.067759990724898,-0.0326223177279009,-0.0810082369757148
43,430,-0.0323140395449932,5.366981734631574e-05,-0.0326079581632311,-0.0268733141938627,-0.216843337203187,-0.3464037002488112,9.463270975486738,-0.1159559568463886,-0.0246179212216503,-0.0325492359631209
44,440,-0.0245344204541025,0.0050859678372394,-0.0269046413885945,-0.0032137671327509,-0.3775480753635776,-0.2852418202377457,9.188295352636764,-0.1400900432794169,-0.0425090190882314,-0.0737280240298861
45,450,-0.0441622952992167,-0.0158363619180624,-0.0205212907686934,-0.0076207975936419,-0.2612640322954301,-0.2801748508594557,9.372875130246348,-0.0824671012629779,-0.0347848739983938,-0.0172756086775573
46,460,-0.0401082419388393,0.0043180910691912,-0.0399666753559229,-0.0210722652762908,-0.2186639494255287,-0.1857569431791652,9.791070755726963,-0.0806555105190538,-0.0198963782225059,-0.0320133945866934
47,470,-0.0213451628680016,0.0030429289694044,-0.0208204335319169,0.0019845073912153,-0.2617246568291028,-0.2172058814983696,9.655741517537765,-0.0779855310400136,-0.0357785259007067,-0.094390777674309
48,480,-0.0399919533740719,0.006541968927833,-0.0263754047260776,-0.00628920820143,-0.1116884135331304,-0.1075768721087277,9.394289948171378,-0.0483507450429861,-0.0380583472523472,-0.0720513748088549
49,490,-0.0095954803771727,-0.0061608514674979,-0.0073190634666548,-0.0023224665293555,-0.4294556908697986,-0.2730100245445283,9.279189296879078,-0.0921097332194902,-0.0366392490641753,-0.0662786043127167
50,500,-0.0521736535114767,-0.032080516836463,-0.0559627512447218,-0.0276434741856618,-0.0595349830849769,-0.2825889954657822,8.986388023169411,-0.0522126394291808,-0.0319380183118423,-0.0573714320483149
51,510,-0.0218295010746148,-0.015820845301445,-0.0405769561593335,-0.0193286806661986,-0.2758244380668302,-0.1759699341742176,9.545578772410318,-0.072289214847337,-0.0301578425306751,-0.0685667896140504
52,520,-0.038582097308849,-0.0064422331654477,-0.0357220900985834,-0.013370024781379,-0.2594970725903769,-0.1321065609808445,9.100829166269438,-0.0659887240529662,-0.0429598333260304,-0.0400990273366348
53,530,-0.0240415224660128,0.0093980894053209,-0.0036211100556919,-0.0094292610255354,-0.2421868727409485,-0.2755568467773838,9.421785341371535,-0.0338922257917586,-0.0273242592969362,-0.0831875465977822
54,540,-0.0324505549627484,-0.0364747949769467,-0.0287230296479101,-0.0286719149759779,-0.2238159871826668,-0.100617292997357,9.493078264971723,-0.0542975644878273,-0.0261285981908454,-0.0407892753924377
55,550,-0.0364359482369364,-0.0335724011246766,-0.0351216045526118,-0.0159501159071524,-0.0827895978626851,-0.057312879703925,9.482677104206267,-0.093884244176281,-0.0200244626574465,-0.0490134648223666
56,560,-0.0466144655313107,-0.0148674588328345,-0.0472712184087528,-0.0248031386556755,-0.0960893630966156,-0.0366151753881008,9.36068322018068,-0.0314380824621621,-0.0275299760570568,-0.0549864395455392
57,570,-0.0309784898484267,-0.0183711035270803,-0.0333168196019861,-0.0217023131791765,-0.2657160957945518,-0.175094188247869,9.009551099677912,-0.0692163122578275,-0.0370284538873562,-0.1323398233857796
58,580,-0.0364442163860431,-0.03042636261837,-0.0459858268838454,-0.0181876402729269,-0.2487320184991441,-0.1795072152493215,9.413627916417896,-0.0751230222853589,-0.0309283379753953,-0.011201583370944
59,590,-0.0381148239250392,-0.0188852160211403,-0.0446426443936271,-0.0223919987989422,-0.1278603207972449,-0.1446632138220644,9.49114336814821,-0.0556862132093603,-0.0085496764725555,-0.0215253752367764
60,600,-0.0282657664145046,-0.0263434721157684,-0.0383678359207004,-0.0124738791754109,-0.2545481752065413,-0.1499343852360822,9.36240317701564,-0.0525884667294918,-0.0140465993440127,-0.0968456275780951
61,610,-0.0301549611187027,-0.0273644908983629,-0.0154123359463141,-0.0192135729447562,-0.2317113768110822,-0.0668388750725238,9.426355173859442,-0.0666901554984534,-0.021136364208843,-0.0780261541069819
62,620,-0.047997301336598,-0.0460793472717901,-0.0526907936723856,-0.0215085744048272,-0.1080086075514855,-0.1071199420343045,9.740207698387984,-0.0667913199369643,-0.0362682234232947,-0.0333511557351475
63,630,-0.0394948369619677,-0.0271703674495014,-0.0282885033675549,-0.0258300672174487,-0.0712980092138216,-0.081517111728322,9.753304611227986,-0.076047199840476,-0.0215180318167701,-0.0708694384211022
64,640,-0.0487701529318762,-0.0197305367473843,-0.0284994563556775,-0.0018944197553055,-0.183678593505347,-0.1548031584226161,9.521460828339308,-0.0608234061661531,-0.0200380999072389,-0.0703005749637627
65,650,-0.0399958083497519,-0.0228294802587564,-0.0407624962988009,-0.0331145001021975,-0.1821488647463221,0.0038535725732024,9.503950917915317,-0.0776784097258869,-0.0147355380485649,-0.0195616627134875
66,660,-0.0322961787461514,-0.0057684478574443,-0.0257604495420245,-0.0171522536985363,-0.0114018420859649,-0.3213052035856072,10.059360951093565,-0.1182929765250798,-0.018272622522724,-0.0833591572880716
67,670,-0.027949228163971,-0.0152277609577629,-0.0188016646079784,-0.0096167336869645,-0.1999435493016269,-0.1233982817590685,9.747311895093487,-0.0626240388804959,-0.018106719164382,-0.0079678793906379
68,680,-0.0199765392108843,-0.0199425347444501,-0.0264313714305008,-0.0117580726107366,-0.2297914366854659,-0.2439656326388282,9.74132616013031,-0.0610469482324892,-0.0248019869523455,-0.0448551532159054
69,690,-0.0195890416160245,-0.0099331927224122,-0.0069202220723519,-0.0259268924992098,-0.0405602463672482,-0.1365879959739211,9.757715979755806,-0.0952580579647146,-0.0344121752333946,-0.060620198670284
70,700,-0.0424767309444491,0.0027894386169899,-0.0410318642814913,-0.0120448148240223,-0.075066716476962,-0.2820533357970405,9.706060593571594,-0.0367276987125677,-0.0190009459400479,-0.089173015979048
71,710,-0.0315046506917153,-0.0327332314345978,-0.0134383103545627,-0.015076177944488,-0.0913950056831595,-0.0277960984652319,9.3453315210193,-0.0453873478626494,-0.0200035950596219,-0.0534191021882855
72,720,-0.0283242829525317,-0.0076411775441834,-0.0383260705955668,-0.0054751125319805,-0.2607955638941824,-0.1010641273607323,9.542101559035055,-0.0459768548344586,-0.0166245329002505,-0.0543036854630929
73,730,-0.0252331472032033,-0.0036930503807509,-0.0316364889801379,-0.0124080899093586,-0.2014823180544725,0.0524915333112623,10.048988211376097,-0.0517813117358895,-0.0245160817633431,-0.0870405759986425
74,740,-0.0323200112749015,-0.0032464245170665,-0.016719740951697,-0.0218449193616584,-0.2137005912522724,-0.0220696789969861,9.437997142896696,-0.0378377752793531,-0.0306228321061757,-0.0374672417081555
75,750,-0.0206886849010721,0.0008015832892411,-0.0215697535275855,-0.0186373195485184,-0.3640540093023098,-0.1140890612229407,9.469580218880967,-0.0134912711653699,-0.0313923701451311,-0.0477900980237145
76,760,-0.0085579917849026,0.0132237595922034,-0.0292865522489109,0.0005017921737774,-0.089388484909901,-0.0593468595350469,9.446475806371296,-0.0466221010197867,-0.0139309598573541,-0.0351568754544108
77,770,-0.0268673485793555,-0.0123347435374905,-0.0220054150581115,0.0042816420547081,-0.02901640800671,-0.1888788040420157,9.532103685882475,-0.0131974755463013,-0.025982378792797,-0.0414716877537275
78,780,-0.024508368855623,-0.000277404538967,4.590641034775758e-05,-0.016531654474887,-0.1863868126592702,-0.1407041997700773,9.61533825477631,-0.0352043792320741,-0.0311789501993541,-0.0721488407316503
79,790,-0.0412170371603925,0.0103784990209298,0.0093560812953226,-0.007269169189102,-0.0448741308065268,-0.1669523018425628,9.226552812576864,-0.039474649829005,-0.009530058714922,-0.04318562835106
80,800,-0.0071378891909282,-0.0027077585624734,-0.0129862391209006,-0.0036040560515234,-0.0179586597140304,-0.2207728333162315,9.459005595678402,-0.0285222234699065,-0.0259557307100603,-0.081283765694319
81,810,-0.0128531868146688,-0.0106818124777646,-0.0404443870805599,-4.797782186329296e-05,-0.1316931189313164,-0.183020554914241,9.600596912989616,-0.0425521845541883,-0.0193516135676803,-0.0131170849078468
82,820,0.0189817083713165,-0.0030855966404273,-0.0130220734919801,0.0101770769663912,-0.0642494515999696,-0.2221041580608254,9.54494259866052,-0.0359540408289839,-0.0215893865149666,0.0208900926507033
83,830,-0.0074616747887664,0.0012376595315157,-0.0232987412425864,-0.0015688044482744,0.0392906482175031,-0.1697510971986959,9.378437177302052,-0.0474741571743157,-0.0348690576432071,-0.0140939910510576
84,840,-0.0295060149473962,-0.0021781064129756,-0.0177082477300668,-0.0183162559142616,-0.109200288558239,-0.071558737894243,9.400697864815395,-0.0341775438571689,-0.0249380131894803,-0.0458166798495238
85,850,-0.0372490593415082,0.0061683107805141,-0.0185471111656224,0.0141658978890846,-0.1031441093159181,-0.1261486882163351,9.72277376526316,-0.023751298145658,-0.0261553989192935,-0.0374489955047269
86,860,0.0020142453511028,-0.0141669685332881,-0.0232261679111306,-0.007788730173256,-0.0478230776583767,-0.0170633405069286,9.92356487019804,-0.0329952602030706,-0.0232636926955158,-0.0487019584360553
87,870,-0.021887529383573,-0.005530300662309,-0.0157325881692152,-0.0039602206440644,-0.1121544446701769,-0.2626961723865121,9.573177784584866,-0.0304299134821467,-0.010040372710713,-0.0659621423955197
88,880,-0.0133435964749985,0.0195339630487304,-0.0089451846292532,0.0012250363961275,0.012005563300266,-0.1606073587321935,9.344148918519128,-0.0273448226737088,-0.0155644839732114,-0.055666721097378
89,890,-0.0104970803297539,-0.005146294089393,-0.0115040806427166,-0.0237081949070116,-0.0133332753364863,-0.0274487075447496,9.6061212885112,-0.0287959767000119,-0.0011850614201719,-0.0232089607387466
90,900,-0.0282196466061792,-0.0202329131348346,-0.0219939493196042,-0.010489874955427,-0.0912062675558785,0.1175540929321701,9.724561190058202,-0.0259015653854046,-0.0273768731531349,-0.0044904104618206
91,910,-0.004954351192123,0.0016389229419728,-0.0162819008208304,-0.0123696735311558,-0.1787321469603815,-0.2209477776103519,9.9836642955952,-0.0697670300936743,-0.01248206129993,-0.0107642533083888
92,920,0.0026865582448792,0.0108337543426256,0.0001249530744756,0.0113472188663343,-0.1334418279874641,-0.2785284757563763,9.834514049097717,-0.0137864788713928,-0.0152455528042349,-0.0160474626533944
93,930,-0.0218323519932422,-0.0084325814930772,-0.0193404919289402,-0.0358355655077886,-0.1366520911803534,-0.0667826319106241,9.57398219755582,-0.0234654041931053,0.005775161867556,-0.0421758126660545
94,940,-0.0020355610524507,0.0050915939692456,-0.0050471436550856,0.0113755486762527,0.0866743540691961,-0.0427802968409727,9.641862183299946,-0.0788420605983604,0.0078195159970058,-0.0299980459175957
95,950,-0.0213012049812397,-0.0177073761834164,-0.0185652846046017,-0.0263757354092506,-0.1312412834837014,-0.1385324612778367,10.001891866661513,7.233492242273223e-05,-0.0154592130416925,-0.0192063367553564
96,960,-0.0084547686815278,-0.0153139825135183,-0.0196437994059847,-0.0012644057281565,0.0137174074830692,-0.1658055698731728,9.322070285396638,-0.038398333230485,-0.014654859050821,-0.0213774782991541
97,970,-0.0065796791826868,-0.014078539118533,-0.0027870887654839,-0.0023412387292895,0.1082096534678562,0.016600651836104,9.404280040726883,0.0014109661798817,-0.0291511753739415,-0.0462245070119299
98,980,-0.0170871709442335,-0.0195502254055559,-0.0208262375039111,-0.0014706418088659,-0.135044256352545,-0.143400538923644,9.664889096669226,-0.0013788401590814,-0.0132519595367493,-0.0236428163509327
99,990,-0.0148021950690962,-0.0289475416830187,-0.0213498123947144,-0.0159795958962815,0.111326348211396,-0.08285937726417,9.794173555755084,-0.0306517566707585,-0.0225894198426265,-0.0115689965414135
100,1000,-0.0370557654037871,-0.0164949134506782,-0.0246288957916113,-0.0089701456006773,0.1245863441211218,0.0489865262328067,9.55338086300836,0.0089372796298542,0.0091486502390811,0.004740280982975
101,1010,-0.0165474002610207,-0.0071664064993044,-0.0107048679009397,-0.0178600525989865,-0.1662213652425564,-0.1181639760602944,9.740689567633074,-0.0436143384081082,-0.0273518467858146,-0.0433235430524445
102,1020,-0.0273454787111382,-0.0065063912373688,-0.0177637686269041,-0.0134976314161155,0.0685811076668166,-0.0431974614556459,9.655965046868134,-0.0536635206653365,0.0186172329715398,-0.0806915296490335
103,1030,-0.0043657238421787,-0.0031870362473746,-0.0110749920720898,-0.0241591799840678,-0.1532019186796003,-0.0002844990837797,9.33324706407912,0.0146575822551153,-0.0104894760930466,-0.0030259339961396
104,1040,-0.0046045293743749,-0.0131066688707382,-0.0297777760237081,-0.0111227750571084,-0.1018659007235753,-0.0903004694064613,9.547487186408596,-0.0351839336280255,0.0031490805168555,-0.0083463937954083
105,1050,-0.0189794275553699,-0.0082898585369238,-0.0331045986477842,-0.0084602445947541,-0.0751615723299278,-0.077122194330891,9.506155291462004,-0.0104354979889283,-0.0010851874255952,-0.0151394255400861
106,1060,-0.014337038266194,-0.0194911442150631,-0.0078461383218538,-0.0172032323957377,-0.0895516925259798,-0.1922208357035412,9.638967470610728,0.011850936431848,0.0132942306571178,0.0051898037754258
107,1070,-0.0155077858966829,-0.0287434125234876,-0.021469924269567,-0.0118500057238586,-0.1084924661553151,0.1198089699720605,9.793261950272033,-0.0127509065354621,0.0022240176354231,0.0284628929431288
108,1080,-0.0236918799224807,-0.023318934469019,-0.0274875995126002,0.0046939988125578,0.0252703710594118,-0.0123634284261934,10.044839551643165,-0.0008476498996265,-0.0024729605674395,-0.0471505129179665
109,1090,-0.0318309343718665,-0.004584937473851,-0.0413059721531511,-0.0176974791708318,-0.0415195273223296,-0.0008107183340601,9.643112475723669,-0.0509049219000563,-0.0074580402054075,-0.0091553185261623
110,1100,-0.0257774587985475,-0.021843607550266,-0.0435512948740449,-0.0237513899043614,-0.1344740053099887,-0.1714783843681685,9.904067550329977,-0.0090925133896863,-0.0126933195023833,-0.0048935381534635
111,1110,-0.0079383053737993,-0.0103071703850561,0.0026160262968003,-0.0046434535121285,-0.1155891193009082,0.0287805679473607,9.920723154613412,0.0107388935050065,-0.0034929146820921,-0.0271598771986067
112,1120,-0.0187453013014915,-0.0172789951043144,-0.0143144924802109,-0.0095653340141949,-0.1727703985498678,0.0465153590004931,9.774271137777427,-0.0409973077880542,-0.0293268581606286,-0.0595139560885084
113,1130,-0.0011765638499197,-0.0129331585570237,-0.0269342534219923,-0.0191175628265418,-0.020729020277137,-0.1398338957823717,9.609081666844483,-0.0200947286448646,-0.0123752894091479,-0.0102352569081864
114,1140,0.0010206788092836,-0.0110263605154524,-0.0116978546530802,0.0158097681716787,-0.1289100509782695,0.0189861351490748,9.55368150561258,-0.0305380937560259,0.0063915969776595,-0.0141761679789524
115,1150,-0.0208587692549018,-0.0114744924572327,-0.023357287702492,-0.0246644689412072,-0.0681677435575976,-0.0291463206674382,9.585101448863526,-0.0162066960942525,0.0007402763627932,-0.1106572197940633
116,1160,-0.02095674797466,-0.0114029102748071,-0.0122396947311839,-0.0003725416389604,0.0619027847713153,-0.0272372811489765,9.67373212200001,-0.0170032895724685,0.0018920913972795,-0.0368384101520038
117,1170,-0.0184310447689038,-0.0222645657541761,-0.0168978839774813,-0.0226574255380367,-0.0443588747978013,-0.068254853296607,9.981569911132238,-0.0114791652661469,-0.0110394212217683,-0.0050532087473427
118,1180,0.0096095816435562,0.0054953524072824,0.0137060227799634,-0.0038209732995234,0.0514496184237073,0.0005107382121834,9.922517603565652,-0.0137844589895839,-0.0164120485340009,0.0014540463173264
119,1190,0.0097669796129255,0.0017488912322122,-0.0050226086777242,0.0010875466767307,0.0030662587553585,0.0846710782918345,9.56491350532004,-0.0296529427510849,-0.0061535936565111,0.0196133424491578
120,1200,0.0103418727602864,0.01735955323053,0.0065301950905102,0.0087402215518975,-0.0040904013072835,-0.0370757321414105,9.995303504899429,-0.030177408514701,0.0053482969163219,-0.0395836511303779
121,1210,0.0112670236188528,-0.0023722192642156,-0.0025279853837281,-0.0084058338042592,0.0663987385496831,-0.161897276262625,9.837736003170566,-0.059739242941723,0.002036268560507,0.0074530819976404
122,1220,0.0168738900807225,0.0092869319759458,0.0170486288220868,0.0088511011663006,0.0338593135546381,0.0636832029150395,9.97723961281168,0.009745655024931,0.0193112982004348,-0.0033473444898692
123,1230,0.0059379701421886,0.0086369593610185,0.0158925159750691,0.0123143913566919,0.0614714044390472,0.0898245642880119,9.71711150657402,0.0082489558717167,0.0153641879752487,0.0155573068451338
124,1240,0.0153488946981082,-0.0050073196837402,-0.0032534055194787,0.0143897393450105,0.0837382863275237,0.0779414876429763,9.363729877599216,0.0069631149113349,-0.0043918405860474,-0.0055709286722295
125,1250,0.0039377164802372,0.0016351299632615,0.014581618557899,0.0116738126645365,-0.0167073238968867,0.0381485259517427,10.089533916858857,-0.0009366448829427,0.0107313561990743,0.0492205048067521
126,1260,0.0226207983887645,0.0305780064452289,-0.0019343291212591,-0.0136831805912978,0.17599861875498,0.1485306238729046,9.84745574124854,0.0270731228942084,-0.0089488503319583,0.0296649875658634
127,1270,0.0035873176137593,0.001372754088808,0.0214955785769729,-0.0039451886425098,0.033541118886382,0.0415058968605683,9.892371249565086,0.0308977228948102,0.0052702711199226,0.0008642047259274
128,1280,0.00169493909967,0.012991178811617,0.0046331641995905,0.030409707625167,0.1321495696860364,0.0125467636606479,9.975226822209022,0.0476129522726891,-0.004900143312985,-0.0079594167967059
129,1290,0.0393839663697848,0.0181384019161978,0.0222045505711802,0.0029408412227519,0.0427971406884192,-0.1247645034814977,10.074509747181295,0.0092234479364548,0.0031753123749552,0.0463473976037617
130,1300,0.0115666085489965,-0.0008928066682872,0.0264331007371046,0.0117566602814528,0.0963204903847239,0.1020415672061319,10.014917680731864,0.0446189159406246,0.009588301726437,0.0523256047576678
131,1310,0.0212130602164224,0.0143186959537156,0.0230472887643798,0.0221523118694306,0.0838600893657797,0.0177166848583633,10.072027840518077,0.0374785395922815,-0.0032028090970699,0.0312025848934017
132,1320,0.0187587377954435,0.0206861472929708,0.0206911165039126,0.0238567265826757,0.0036916699358577,-0.0564766393503594,9.982388249364584,-0.0295012623097474,0.0199085104022651,0.047344274115586
133,1330,0.0226610559652204,0.0200411897732454,0.0176924833594684,0.0017718225304426,0.0010521777327073,-0.0878416193049388,9.716242562503576,0.0197230958270696,0.0011073821636502,-0.0028280281777127
134,1340,0.0117650688265652,0.0141277552096435,0.036876296230615,0.0173454511863029,-0.0393937405129247,-0.2373776531105745,9.651402809102688,0.0440768784928931,0.0097930694139292,-0.0293031194009225
135,1350,0.0272597254105394,0.0216876024907361,0.030042704842172,0.0212670447708307,0.0222805288920913,0.0776747668092918,9.882834774175732,0.0504863567627114,0.0019238858879851,0.0029650950745369
136,1360,0.0191527847887985,0.0283947079863044,0.0359017716455425,0.0266808035605007,0.1142111388573108,0.0922776690405033,10.01711148598173,0.0169437443849141,0.0058516042911756,0.0144555007896856
137,1370,0.0383585194352896,0.0342976498618795,0.014793184245358,0.0328059189406621,-0.0108447038785778,0.2334636513815843,10.14070679847169,0.0341061124397813,0.0022890053897716,-0.0192674184705401
138,1380,0.0173726293053775,0.0026212757719402,0.0153752914876501,0.0124125601554412,0.1798393882719375,-0.0891102942345229,9.664139579031165,0.0178950425813011,0.0127000621671057,0.0475443856670265
139,1390,0.0126056870578071,-0.0040719283156958,0.0100497796170716,-0.0048254481532564,0.0050793990698817,-0.0386969657796587,10.221477618012331,0.0288833938014427,-0.0003922360579001,0.0044445162262484
140,1400,0.0373685734366146,0.0273211309890894,0.0297893411439499,0.0030231707345794,0.1213717226496732,-0.1602948243916127,9.71849911532115,0.0289989973050652,0.014745116502053,-0.0135250386281007
141,1410,0.0252600997566253,0.0007613745938724,0.024535992246326,0.0191214183559896,-0.0575436221649994,0.1498024428407499,10.222494875233709,0.0096879152133096,0.0172932648306403,0.0329990742794325
142,1420,0.0313206740291151,0.0137375095558352,0.0235204018455572,0.0170956350965812,-0.0130498006600354,-0.0792154330091409,9.728191612548276,0.0135465144098311,-0.0044712555500012,0.0136725376078831
143,1430,0.012420926313619,-0.0065977059176608,0.0310096450150547,0.0121561126600971,0.0466680350609335,0.0508749216262615,10.151131658527436,0.0430459906657152,0.0208279661181151,0.0211451654861421
144,1440,0.0217248327164797,-0.0108373037047084,0.0232266154937916,0.0269989931311342,0.2393841919891707,0.0596488642457742,10.16586666838022,0.053710430227665,0.0140806412312761,-0.030730356895051
145,1450,0.0096582513295533,0.0125599046523241,0.0289170785884208,0.0114354934574745,0.0852752156309348,0.1718808796103783,9.934223218413038,0.0156029865015113,0.0112254344476733,0.0256595994387006
146,1460,0.0232742737473669,0.0097941598771679,0.0355067977312625,0.0145175157103801,0.0890773100156537,0.1139502746096137,10.38367253138245,0.0626375676340597,0.0286164441384585,0.1055547193590966
147,1470,0.0189406158341656,0.0177755794291158,0.0196306552554627,0.0037081092800754,-0.0080419168018984,0.13484814247588,9.669932548422691,0.0397791198706804,0.0110292997305619,0.0389336069447931
148,1480,-0.0022895228003317,0.0011082176365339,0.0220227565914311,0.0170100115983496,-0.0375370242543967,0.0707332595697574,9.738549615713524,-0.0136028994128546,0.0166906798162296,-0.0159931683531615
149,1490,0.0181283294006074,0.0067486919565073,0.0207387880048598,0.0141069822636325,0.0970023949025995,0.0516708159026491,10.047821958665711,0.0038481485359469,0.0135595851333232,0.0234333939889019
150,1500,0.0152765883813066,-0.0134807721979385,0.0329267471854771,0.0081436019409403,0.1774493322284398,0.152161875884571,9.797798615568476,0.0429184136841219,0.0020453736342628,-0.0035628570185767
151,1510,0.0083403743543033,0.0137194650439137,0.0082735646413343,0.0044076990187958,0.0906002075032278,-0.0096451458532383,9.833579607337182,0.0264077972912525,0.000966756279876,0.0573529612966503
152,1520,0.0322810010659799,-0.0048797595680106,0.0270280260056737,0.0173267069958971,-0.0358366127091727,0.0597815056952082,10.259540746719754,0.0532900485539363,0.0115189926896284,0.0248383472203332
153,1530,0.0248508898877409,-0.0027844106465675,0.0012672150711716,0.0213237718274895,0.0912100771546469,0.1079883705685497,10.18176085047673,0.0263995825154459,0.0061767914001173,0.0469421770350092
154,1540,0.0033237655655457,-0.0004935330234018,0.0093797275982732,0.0219570756436303,0.2010852782559346,0.1604556636374954,10.125995857043891,0.0312430564992803,0.0398744989387259,0.0300248569845522
155,1550,0.0283322745412547,-0.0052025971842949,-0.0023198638340288,0.0167528476663649,-0.0275017197911635,0.053072301089215,10.113853569917612,0.0681917595853795,0.0173958529070788,0.0450804411966721
156,1560,0.042896039223478,0.0014736717797075,0.0211005385662706,0.0071986812011865,0.0335789113748829,0.0095910857548522,9.933443618466868,0.0613564846577305,0.0145896010689973,0.0129865264651867
157,1570,0.0164454339229106,0.015052287649761,-0.0031562724027039,0.0050957651093507,0.0383696483958336,-0.1152347702464374,10.103991636571068,0.070332789679009,0.0081211115701177,0.0628386651943217
158,1580,0.01503560618363,0.0045620002226658,0.0075995731272313,0.0026999300970189,0.0776488222836699,0.246441335859221,10.173010647509262,0.0712018817161131,0.0052020429162436,0.0314109568197806
159,1590,0.0272659890583707,0.0172523486958189,0.0118119205186404,-0.0029246641912891,0.0317398411888486,0.1277151387714499,9.747690514663676,0.0739200409880705,0.0161572495201623,0.0049138423324111
160,1600,0.0284109279808617,0.0033062900070593,0.0364494261639735,-0.0012460494631774,-0.0302765208486023,0.114505999336465,9.967891427079316,0.0193661388516786,0.0197437226608334,-0.0025628881397514
161,1610,0.0165695976197598,-0.001296971826923,0.0022075746365348,0.0002832965569523,-0.0470266486299326,0.1675348139943858,9.934080200575234,0.0931100513487478,0.0296046677642068,0.0432003457039876
162,1620,0.0214869953575415,-0.0070274843790674,0.0167663625300629,0.0126110630728715,0.2559376340614972,-0.0892884479201633,10.05584025540715,0.0584015473929864,0.0266588673688165,0.07414976356784
163,1630,0.0228581734022651,-0.0062560042678912,0.0132746221316771,0.0111242426175291,0.1678688742793521,0.2422052536491027,10.029788170734946,0.0619153734080692,0.0138597868932171,0.1157276997929787
164,1640,0.0115861636922227,-0.0047278334032328,0.0267264622696919,0.0082516060955616,0.1541019221898412,0.197805280751964,10.511337397556206,0.0459649500970193,0.0282039199641424,0.0125249446711635
165,1650,0.0270938565759406,-0.0007085341654408,0.0012142034361214,0.0022287484636383,0.1059517213480937,0.2851238661569791,10.11542684407641,0.0095948888370001,0.018944557676271,0.0847350402093024
166,1660,0.0296996602623896,0.0204099101064668,0.0064067537162298,0.0104236760850527,0.0965433588993973,-0.050504044674832,9.82732408372715,0.0668238585572198,0.0152080571596074,0.0130872400522872
167,1670,0.0187663725521483,0.016403431356905,0.0146427041046141,0.0202025425488184,0.1568599870631612,0.112347075693505,10.072858049292924,0.0675513968134581,0.0242172931915613,0.0541569071777734
168,1680,0.027250038010824,-0.0044428642486469,0.0273809661900591,0.0104730216042872,0.1030052227560501,0.1564765126918582,10.011579346066927,0.0513788781813736,0.0127006994022218,0.0848517868095426
169,1690,0.0422409698219784,0.0118911438581325,0.0320383402147066,0.0180087118956167,0.2736874278154778,0.0628698127861123,9.65907008841147,0.076921282000656,0.0243273786322339,0.0419993401323767
170,1700,0.0342795595134418,0.0177490334492445,0.012966041178572,-5.514966116542709e-05,0.1476939321447326,0.0145210208216096,10.112464378925948,0.0057181705997466,0.0202312314719943,0.0226758975936028
171,1710,0.0466345629807935,0.0084396605559414,0.0353769879158905,0.0158050566523909,0.2825728838595234,0.261598244839074,10.101132662622534,0.0759079300328659,0.0041107326411518,0.0600486792849651
172,1720,0.0387076586758448,0.0106969914590902,0.020789771925311,0.0139534460713487,0.1526280009160577,0.1147564866717083,10.32874806922074,0.0561643790424314,-0.0007242010312486,0.0559380739014289
173,1730,0.0366512637696414,0.0003279533843377,0.0329200278710209,0.013691065386409,0.1355926263281772,0.1228589972029672,10.058903561688096,0.0510044391067872,0.0219472162734105,0.0456609749004611
174,1740,0.0294208427175198,0.0060510272755408,0.0441041244895281,0.0264000033159354,0.2661896781534388,0.0587736970387614,10.262329105434128,0.0504985414871754,0.0028978382346711,0.0183506187554166
175,1750,0.0405607707180486,0.0146742247953004,0.0464168376891046,0.0127673226538269,0.1854818370601687,0.1750401171259002,10.29770584331572,0.0413698755396356,0.0190962625354075,-0.0203463778060784
176,1760,0.0585646388222839,0.0120980819226285,0.0320717189703396,0.012952322624068,-0.002216041683855,0.2890046261912956,10.203905275463669,0.0305787475402704,0.0307373711527283,0.1021260617132738
177,1770,0.0484100937913262,0.0174039856090347,0.0339489766720859,0.0149823123404002,0.235896193587109,0.201107468777403,9.87184348599199,0.0869224044659489,0.0281352834482697,-0.0149960983248288
178,1780,0.0392517728219258,0.0117871261270163,0.0465521289987534,0.0149610586020039,0.0815178268607785,0.2191781595262357,10.612204737876386,0.1177617270155554,0.0281971719486549,0.039420951261918
179,1790,0.0525890069860381,0.0340308822496721,0.0321498270905603,0.0385144103366791,0.1538506650373331,0.0578505340166922,10.172892841966288,0.0796743000843174,0.0383149868723815,0.0840823892347047
180,1800,0.0504784646998078,0.0149734679422054,0.0104154017576585,0.006643625198389,0.2838030607620858,0.2657917924359712,10.459863234765209,0.0638620923621289,0.0283244780359118,0.0955634662947413
181,1810,0.0409751750384524,0.0139182907485246,0.0259615985475165,0.0336381732742313,0.129330975586592,0.236420271066196,10.483715806430062,0.0863851215181205,0.0037681038724234,0.0881091274390471
182,1820,0.0563120714490959,0.0214663483434276,0.0438893674193247,0.0190156259137485,0.0537085988201453,0.124219186812963,9.919840651534653,0.0822554098894472,0.0239485730102906,0.0190005535845933
183,1830,0.0353757587254223,0.0160896370672846,0.0408157907821428,0.0213964548891468,0.2115055220148087,0.2661977022788966,10.038646968117762,0.0529065444218173,0.0216458741326442,0.0895013115644381
184,1840,0.0403397565731043,0.0235960068465076,0.0269297839475759,0.0227682081667237,0.1558822137440804,0.0855041077631387,10.36919658827365,0.0615142057829928,0.0219809641766576,0.0307750121647204
185,1850,0.0395461983387165,-0.0022239624594157,0.0524473231486744,0.021492503018216,0.2240899597800193,0.3302673217568709,10.117497864378665,0.0504624055340027,0.0102895802224978,0.0449331706253749
186,1860,0.0278049325767574,0.0083398652179404,0.0159826391731535,0.0050241891864078,0.2277386758471568,0.1145308197557743,9.957039869299686,0.0947554940136132,0.0168307479362125,0.0741698386324746
187,1870,0.0386382795707432,0.0084840647106707,0.0430489201867774,0.0201474168738775,0.1751134843442528,0.272066739683158,10.394912880142169,0.0473721898822247,0.040865908752994,0.0731138002911541
188,1880,0.0405318669067618,0.000213337758799,0.0265246503148821,-0.0166365352326283,0.1531406620746072,0.2750163021996867,10.038931564154328,0.0485539670408258,0.0178718333916207,0.0459590811719024
189,1890,0.0537687429687085,0.0145534830300774,0.0427098516936436,0.0171983475796157,0.3433234163901363,0.3772342854929613,10.17749328486676,0.0544972563116121,0.0159347422504234,0.0372571463931911
190,1900,0.0440175676945806,-0.0035227801823983,0.0405784357868545,0.0213806808581102,0.1552502242639632,0.2024326534344881,10.509651779368264,0.1064499804166408,0.0446895628450454,0.1392508529491158
191,1910,0.0321500032430321,-0.0064278728616454,0.0129368080848865,0.0024225733580495,0.1503380996053726,0.0339285703872985,10.676428218680558,0.0749020918343285,0.0442281976949313,0.0989296552713009
192,1920,0.0285107314720105,0.0073641060241075,0.0181731720740818,0.0364636449341924,0.3111012771668333,0.3905655613096975,9.974895197664576,0.1077745546745834,0.02318879228887,0.0895715483155201
193,1930,0.0338310439775744,0.023264859107244,0.0273206447088539,0.0013683017356881,0.3210165196056411,0.1087089978229534,10.237672609163184,0.0735001853041704,0.0229078985560332,0.0699828770253522
194,1940,0.0337667275630999,-0.000104364257578,0.0373788193381398,0.0161145243448329,0.3053796838555601,0.155466297003487,10.225780615793028,0.0924029976937931,0.0285445184956242,0.0425001431224412
195,1950,0.0213540624548563,-0.0095231819162701,0.0126820367164261,-0.0043615363544319,0.3722027922404056,0.1208415925134478,10.17598377657098,0.0784268939519924,0.0387684602698395,0.0384569850828081
196,1960,0.0246098661359072,-0.0066406516261396,0.0307364330701392,0.0157362367935111,0.2932724958806451,0.5060375823344381,10.61006455078331,0.0921013271954425,0.0152365587874328,0.0746731433036447
197,1970,0.021479311546931,0.0046552600603613,0.0394208428905648,0.0023654443972752,0.1921348961748282,0.2333998402788188,10.251242706185195,0.0827211818451551,0.021774714372751,0.0930676602875624
198,1980,0.0247626336574614,-0.0048497596713915,0.0237583210358677,-0.0136798020308832,0.2304346350742352,0.1745878506203064,10.24297259411224,0.0888563199725853,0.0036593533298492,0.098730859349719
199,1990,0.0356281691088448,-0.0122939149586987,0.0316720587206664,0.0159210405461499,0.2963500370236988,0.0327209178121532,10.06782664950252,0.0853040089851553,0.0398645508224951,0.0629193851685235
200,2000,0.0224380467415415,-0.0017482066493466,0.0285032139232687,0.0068689364474279,0.2520409474830192,0.313420272656956,10.190697829062858,0.0716098942903049,0.0453797663967665,0.0549316969020852
201,2010,0.0008891186222044,-0.0065761059198344,0.0054652981965172,-0.0057429263469478,0.1322708606407378,0.3781338672171275,10.061526723097394,0.1160780588731911,0.0557212402044619,0.1033481392579244
202,2020,0.0051148434162887,-0.0098666317290999,0.0247699633433556,-0.0182664880640273,0.1914070150742505,0.2254401585303908,9.924399498408055,0.1009139313579587,0.0324654248702647,0.0929337672694547
203,2030,0.0224210912011686,-0.0041186605986719,0.0185837816195637,-0.0238443602976055,0.1172084685350717,0.153049551950508,9.953143144096034,0.0933381616388587,0.0198325383209576,0.0696385184169558
204,2040,0.0164008652150712,-0.0294439095792792,0.0021300760664847,-0.0131722672792661,0.2618053731046745,0.1295911063571723,10.095265951449417,0.0900999440099278,0.0465018817383409,0.143389576756099
205,2050,0.013593157775,-0.016156912447048,0.0090147229762734,-0.0053155359804061,0.2567745379456436,0.2457969120247077,10.17811637959425,0.1002835610784828,0.0419240772138484,0.0432262024524874
206,2060,0.0087787911511739,-0.0251266302435573,0.0133246309567444,-0.0242826115621144,0.0090403989550531,0.3069474413022731,10.00776557225685,0.125298870852279,0.0409723219335199,0.0924319331789973
207,2070,0.0269219085583694,-0.0019695899360561,0.0389231058474786,0.0126831209305488,0.2341718486804503,0.2641091021047654,9.89671102491896,0.1033900317996722,0.0281229444584351,0.0381154222532147
208,2080,0.0028430514334742,-0.0175899121397958,-0.0001669995015422,-0.0232193170442586,0.1832440434159687,0.2417110098500892,10.242466968238103,0.0867462318396521,0.0386242870719516,0.0849872557014166
209,2090,0.0093012090403095,-0.0342700512368312,0.0105483956690875,-0.0116224770258127,0.1060722197276749,0.2605172080056025,10.364468880463004,0.071563065498919,0.0552529361621972,0.126931082555676
210,2100,0.0038568183914844,-0.012985825969521,0.0040977794908416,-0.0197086566686377,0.0745222404374211,0.1962479099067493,9.570758029566454,0.109776194077174,0.0335037900312252,0.1369576235622025
211,2110,0.0182683526339639,-0.0123919576784567,-0.0079554953535143,-0.0078180248538737,0.2087740848837484,0.0889608240018092,10.372233682828186,0.0729930926764794,0.0512997583965091,0.0638196393164541
212,2120,0.0122964258766498,-0.0268944087916705,0.0156983335293106,-0.0197140221816731,0.1322293069942229,0.2812900744712022,9.91896237373251,0.1054010092280322,0.0405880606531082,0.0560603058513813
213,2130,0.0109325098553253,-0.030765277486853,0.0051490983184803,0.0028381603133048,0.2068851335858864,0.2210018384735453,10.030711107391069,0.0838439062514228,0.0166032939183753,0.0501012544046961
214,2140,0.0327592413145833,-0.0072615194924312,0.0152171543345536,-0.0221876193966443,0.2674953075382869,0.3395618405100669,10.242512428707023,0.0883756815174149,0.0409978231749322,0.1520750633155564
215,2150,0.0183166597620437,-0.0303566109372003,0.0116651899017654,-0.0152633792754106,0.2461811237117357,0.1981751696519915,10.528148006804658,0.1046868068753855,0.0404501481046569,0.1380288287767468
216,2160,0.0048012349925842,-0.0346303210249155,-0.0073801762884248,-0.0208713668068327,0.2025394991882424,0.1927953216660022,10.472996439998605,0.1025200951392128,0.0264543748508917,0.1133053195029243
217,2170,-0.005191433970788,-0.045316919033084,-0.0168511757000137,-0.0335212870505004,0.2966270821682205,0.2364950654510567,10.00105911645204,0.1086407191062825,0.0376083180654196,0.0613907170724213
218,2180,0.0050137812179323,-0.0137946424967564,0.0145822981615838,-0.0368127699101677,0.2907372641364212,0.3383352844313668,10.550956340969384,0.0906755918127786,0.0497128529295295,0.0781176052580755
219,2190,0.0342537173853153,-0.016338226640283,0.0069325670655839,-0.0107038529731959,0.1438179692465752,0.3483603867951699,9.971215881067344,0.133652953449922,0.0348750810053617,0.0879761923035844
220,2200,0.0026073667073726,-0.0196964295613593,0.0079114573107035,-0.0091987492316284,0.2359563209729819,0.4271108382208672,10.180316005133072,0.0817635832809087,0.0490500826078773,0.0779430006418178
221,2210,0.0181876421087181,-0.0190760980978141,0.0043344808003626,-0.0064362369377231,0.2817883129257102,0.4677881673550011,10.32325676481061,0.0754180670783105,0.0417726032563335,0.0785823565564274
222,2220,0.0163726269035602,-0.0241243429419376,0.0172690192564802,-0.0099102418696699,0.1445928611859614,0.3496336954462669,10.402383547904073,0.0819140202811342,0.0534903078727953,0.0564738839991671
223,2230,0.0316862757987914,-0.0067211740934898,0.0113996362483193,-0.0019091354079822,0.2881512213019548,0.3093394362945444,10.402202849608493,0.1457852762554786,0.0307466979042092,0.117612589057312
224,2240,0.0331560632386145,-0.0162463603891402,0.0101157376837943,-0.0335829836233644,0.2995383278485923,0.2206143807049573,10.14628259644509,0.072292361365328,0.0518319033154644,0.0750346061433564
225,2250,0.0276069721985009,-0.0405362701237071,0.0089340577284949,-0.0054431740204637,0.3989119197078768,0.2558137077315938,9.904212622939564,0.0954843544912625,0.0480234704585067,0.0952773983556541
226,2260,0.025510420394421,-0.0182262057235842,0.0321977883322775,0.0022155655533371,0.1435087935308562,0.2954449021808045,10.351153252998678,0.089897488616707,0.0454375157520722,0.090373280557163
227,2270,0.0309180199078542,-0.0219789420905067,0.0271789552603132,-0.0103957708006605,0.1215339812878651,0.4205887825127006,10.240688660070246,0.0896322069962615,0.0502948471756216,0.066474853294541
228,2280,0.0218392404505297,-0.0100089701449378,0.0095541900445165,-0.0060167828766651,0.3054489102207082,0.2991444802793189,10.51427515683404,0.110861451377647,0.0443007004804192,0.0772957679196999
229,2290,0.0381643918081851,-0.001227242145677,-0.0028014848735335,-0.0074646771404361,0.2993773384282236,0.3345190731405945,10.20460405768645,0.0939963813916457,0.0485384637870736,0.070698398921137
230,2300,0.0231064011643212,-0.0102003804682311,0.0136025083813052,-0.0332670996200536,0.39883794179592,0.3802334726252359,10.257342341139056,0.0997678067863128,0.0280343950910407,0.1419908953820908
231,2310,0.0276395078575641,-0.0279797398699345,0.0156102592536862,-0.0161068609089804,0.1889701728472338,0.3478502871871772,10.40976496429998,0.0994796955252652,0.0460190657278702,0.1004299642298732
232,2320,0.0132287327903169,0.0018662436015982,0.0176030315358844,-0.0086761204059444,0.3944720257239363,0.4390806684888364,10.049866952917558,0.1124486330031579,0.0619328128313789,0.1277764847516952
233,2330,0.0301792942587496,-0.0049336047858426,0.0167466966001015,-0.0074571351268782,0.2482935823371213,0.2716640627277026,10.410460664828442,0.1021966308349533,0.0338185410889706,0.1696982196128445
234,2340,0.0266694186547311,-0.0243178267013331,0.0095919037777909,-0.0172953630203461,0.08836928856423,0.4531459747127683,10.405406053777764,0.0626605373208832,0.0523802093032591,0.0599518445836883
235,2350,0.0151927017877505,-0.0263867076358756,0.0121172862492902,-0.0185691443831642,0.3647934273575876,0.4066094322534048,10.171625855649651,0.1216004628856382,0.0412342893210452,0.0803168609373782
236,2360,0.0436523424978975,-0.0054290313284723,0.0185675909279531,-0.0202384380845806,0.3733045739310813,0.2725658056562747,10.34149464348977,0.0934957825497758,0.0385331036900014,0.1098862042073573
237,2370,0.0238516756207446,-0.0443474031290658,-0.0049140977287465,0.0057980712848013,0.3606026463556243,0.2506923320524282,9.994519542850403,0.0722478435668424,0.0416594208903084,0.1418640023154067
238,2380,0.0084307056237338,-0.0147704640469181,0.0335800346755351,-0.0210010582529649,0.392237079930286,0.3740191996934152,9.918831258496995,0.0968336124974093,0.0465248647364419,0.1106443072583479
239,2390,0.0169330481163427,-0.0240739016884225,0.0198684716323802,-0.0125270918183916,0.3267282965884615,0.1965070003014414,10.165365572012217,0.1028831068674274,0.0521274409832023,0.1216615751478177
240,2400,0.0426401404723826,-0.0208236935406218,0.0050847757644234,-0.0186476234089529,0.3303832732978957,0.3134901979639027,10.209448342685205,0.1265261219789895,0.0521164191976731,0.106761463681798
241,2410,0.0130962780272646,-0.0265896316160281,0.0092841976950004,-0.0170337944647705,0.0644276128002051,0.4432115234308251,9.743240719913915,0.1178114211720744,0.0459174682403578,0.1158367164947409
242,2420,-0.01920867548442,-0.0329091229701338,-0.0062422894818451,-0.0269615353809729,0.3392781918635545,0.1607889994253775,10.18799080182567,0.1225213635054263,0.0655740293528472,0.086360212774211
243,2430,0.0112455165460362,-0.0439974209691724,-0.0181009960207386,-0.0257689774491971,0.3260998807877558,0.5311047429921588,10.07808112923255,0.1272515870334419,0.0470678946704603,0.1215984837453447
244,2440,0.0410859237036284,-0.0050554337399299,0.0254827353187368,-0.0154622671872356,0.3718204258090846,0.2576287197772622,10.431033955920263,0.1229701714918374,0.0413832369608781,0.0892825030130549
245,2450,-0.003873366258148,-0.0342537681970385,0.0149015724030489,-0.0220909407904875,0.2918612354999046,0.3263990383857381,10.21975982088861,0.0642994366883357,0.0443405530740072,0.1743625000888908
246,2460,0.0145937777393816,-0.0432133223322481,-0.0167481166582465,-0.0395240712928265,0.5401062248788371,0.440658104072882,10.385864147627192,0.077436170204164,0.0488034775398341,0.1095103770037571
247,2470,0.0133788330393749,-0.0379005474021594,0.0086261959046018,-0.0293663684263077,0.3236837919042952,0.2589931803578906,10.454668505945357,0.1082107535299731,0.0495727884700658,0.1034387777661984
248,2480,0.0086010739025304,-0.04462983633285,0.0058127448262799,-0.041461798213109,0.3669132059239262,0.4655690377530778,10.236595415493674,0.0912390053135238,0.0530958435435946,0.1170200333636108
249,2490,0.0057237407986571,-0.0412967635303833,0.0061654131196961,-0.0426276006264428,0.3293248563474415,0.2577006965357611,10.337305026611954,0.1373245225662125,0.0380036369036187,0.1011572854671357
250,2500,-0.0057094725186052,-0.0567857834449429,-0.0053291331483343,-0.0243066227395865,0.4000072432057703,0.3400249954554466,10.414473479742924,0.1112200599718329,0.0509205882582008,0.1430975032431211
251,2510,-0.015943986113353,-0.0384129574280388,-0.0029382030423813,-0.0292342619989949,0.2510135898438744,0.2193366295527493,10.32023517642337,0.0944909722198947,0.0306730714187011,0.1056442841575633
252,2520,-0.0131395782894373,-0.0489934714411816,-0.0019772832324294,-0.0402288575083516,0.1992913115755055,0.3008970321825608,10.067992818376773,0.1091950979342243,0.0498136826218859,0.0940651425704675
253,2530,-0.0153319510341653,-0.0453941974723621,-0.0038853029813167,-0.0584565679185386,0.2112792875044856,0.4915939813138498,9.935386522504864,0.0700672662320895,0.0488065605830501,0.0648448000653123
254,2540,0.0021124736456737,-0.0452846181842113,-0.0225980469888586,-0.0516103906159528,0.3143969844776138,0.5076759716145787,10.64436194362752,0.0707979791306044,0.0648289167322071,0.1531112906822803
255,2550,0.0040881166169836,-0.0414287209052248,-0.0126885419600503,-0.0427140823015732,0.508714412721853,0.4310631957051598,10.039006125456176,0.1382528205372559,0.0490259920607183,0.0913384374529473
256,2560,-0.0212876444561499,-0.0554352819873465,0.0017910280960963,-0.0473963653176336,0.2457240763906023,0.4474246534809162,10.276905248853616,0.1076698885555177,0.0535069602239878,0.104394870949606
257,2570,0.0072984616492615,-0.0571253440091764,-0.0102629110140379,-0.060480356732451,0.2546930720834235,0.294523924764803,10.16147023606346,0.1256167897674572,0.0487635182325331,0.1360210163540798
258,2580,0.0027825017746579,-0.0432414519918961,0.003719265041017,-0.0368697139285657,0.3202822764327127,0.3735875099229717,10.714119605821784,0.0914044953665692,0.0376613145776928,0.0942566114964721
259,2590,-0.0018089476104528,-0.0511792302717089,-0.0103918377355078,-0.0363699102164766,0.3284967286839434,0.3281506638896681,10.204425151345276,0.0732291953641778,0.0376518928700884,0.1263917080030822
260,2600,0.0034348341306532,-0.0355386435110748,0.0027061340682762,-0.0600926594414511,0.3202828800219409,0.4351009952211858,10.659027951468856,0.0808976112083098,0.0362399996900545,0.0602412975003742
261,2610,-0.0073867147885753,-0.0409989857772034,-0.0197049405432831,-0.0446026423727364,0.2671791075193119,0.2973848617989361,10.395466086036246,0.0806813187075171,0.0415043303168178,0.0862007540971267
262,2620,-0.0073867147885753,-0.0409989857772034,-0.0197049405432831,-0.0446026423727364,0.2671791075193119,0.2973848617989361,10.395466086036246,0.0806813187075171,0.0415043303168178,0.0862007540971267
263,2630,-0.009827582042891522,-0.036945707108389084,-0.020710298617927,-0.04167490417447958,0.23185582477764421,0.25675041502765183,10.35237783333993,0.07271412931611448,0.036193722472522574,0.07761288919851381
264,2640,-0.012268449297207742,-0.03289242843957477,-0.0217156566925709,-0.03874716597622276,0.19653254203597653,0.2161159682563676,10.309289580643611,0.06474693992471187,0.03088311462822735,0.06902502429990091
265,2650,-0.014709316551523964,-0.028839149770760453,-0.0227210147672148,-0.03581942777796594,0.16120925929430888,0.1754815214850834,10.266201327947295,0.05677975053330926,0.02557250678393212,0.060437159401288014
266,2660,-0.017150183805840186,-0.024785871101946137,-0.0237263728418587,-0.032891689579709116,0.1258859765526412,0.13484707471379914,10.223113075250977,0.048812561141906644,0.020261898939636893,0.05184929450267512
267,2670,-0.019591051060156406,-0.02073259243313182,-0.0247317309165026,-0.029963951381452296,0.09056269381097351,0.09421262794251489,10.18002482255466,0.040845371750504025,0.014951291095341667,0.04326142960406223
268,2680,-0.022031918314472626,-0.016679313764317506,-0.025737088991146496,-0.027036213183195476,0.055239411069305855,0.05357818117123067,10.136936569858342,0.032878182359101414,0.009640683251046438,0.03467356470544933
269,2690,-0.024472785568788853,-0.01262603509550319,-0.026742447065790396,-0.024108474984938653,0.019916128327638172,0.01294373439994645,10.093848317162026,0.024910992967698803,0.004330075406751212,0.026085699806836435
270,2700,-0.026913652823105073,-0.008572756426688873,-0.027747805140434297,-0.021180736786681833,-0.015407154414029511,-0.0276907123713378,10.050760064465708,0.016943803576296185,-0.0009805324375440141,0.017497834908223542
271,2710,-0.029354520077421294,-0.004519477757874556,-0.028753163215078197,-0.018252998588425013,-0.050730437155697194,-0.06832515914262205,10.007671811769391,0.008976614184893567,-0.00629114028183924,0.008909970009610649
272,2720,-0.031795387331737514,-0.0004661990890602388,-0.029758521289722097,-0.01532526039016819,-0.08605371989736488,-0.1089596059139063,9.964583559073073,0.0010094247934909484,-0.011601748126134466,0.00032210511099775574
273,2730,-0.034236254586053734,0.003587079579754078,-0.030763879364365997,-0.01239752219191137,-0.12137700263903256,-0.1495940526851905,9.921495306376757,-0.006957764597911656,-0.016912355970429692,-0.008265759787615137
274,2740,-0.036677121840369954,0.007640358248568388,-0.0317692374390099,-0.00946978399365455,-0.1567002853807002,-0.19022849945647474,9.878407053680439,-0.014924953989314274,-0.022222963814724925,-0.016853624686228044
275,2750,-0.039117989094686174,0.011693636917382705,-0.0327745955136538,-0.00654204579539773,-0.19202356812236787,-0.23086294622775894,9.835318800984123,-0.022892143380716892,-0.02753357165902015,-0.025441489584840937
276,2760,-0.0415588563490024,0.01574691558619702,-0.0337799535882977,-0.0036143075971409033,-0.22734685086403555,-0.2714973929990432,9.792230548287804,-0.030859332772119497,-0.03284417950331538,-0.03402935448345383
277,2770,-0.04399972360331862,0.01980019425501134,-0.0347853116629416,-0.0006865693988840835,-0.2626701336057033,-0.31213183977032743,9.749142295591488,-0.038826522163522115,-0.0381547873476106,-0.04261721938206671
278,2780,-0.04644059085763484,0.023853472923825655,-0.0357906697375855,0.0022411687993727364,-0.2979934163473709,-0.3527662865416117,9.70605404289517,-0.04679371155492473,-0.04346539519190583,-0.051205084280679616
279,2790,-0.04888145811195106,0.027906751592639972,-0.0367960278122294,0.005168906997629556,-0.33331669908903855,-0.39340073331289593,9.662965790198854,-0.05476090094632735,-0.048776003036201054,-0.05979294917929252
280,2800,-0.05132232536626728,0.03196003026145429,-0.0378013858868733,0.008096645195886376,-0.3686399818307063,-0.4340351800841802,9.619877537502536,-0.06272809033772997,-0.05408661088049628,-0.0683808140779054
281,2810,-0.0537631926205835,0.0360133089302686,-0.0388067439615172,0.0110243833941432,-0.4039632645723739,-0.4746696268554645,9.57678928480622,-0.0706952797291326,-0.0593972187247915,-0.0769686789765183
282,2820,-0.0537631926205835,0.0360133089302686,-0.0388067439615172,0.0110243833941432,-0.4039632645723739,-0.4746696268554645,9.57678928480622,-0.0706952797291326,-0.0593972187247915,-0.0769686789765183
283,2830,-0.0574550035212979,0.0265694173424545,-0.0472641834505732,0.0133916577284255,-0.2066574802712666,-0.3661840661566005,9.572947561228698,-0.0298828811552688,-0.0494193956794344,-0.1090818344245735
284,2840,-0.0271080951959452,0.0509420699205991,-0.0044906752671537,0.0193157438593744,-0.2564909710904888,-0.362904892504137,9.508574124112846,-0.0370637178464529,-0.0615759463860128,-0.0776587790865469
285,2850,-0.0602111663237414,0.0468040750543621,-0.04060857158724,0.0070840411846497,-0.416398491722893,-0.3642294915916518,9.24727957052148,-0.0713119933503786,-0.052242894541767,-0.1101232067582169
286,2860,-0.0616286123235398,0.0193901279337195,-0.0286315241316209,0.0176063934292348,-0.2768207102772872,-0.359892701714551,9.488342492921996,-0.0747811672883869,-0.0429498957814627,-0.1081426419921793
287,2870,-0.0607165306865957,0.031240137023095,-0.014919188150827,0.0257400455885844,-0.3645176363845369,-0.3900580603653493,9.48506389507194,-0.0357889641230793,-0.0404320639307229,-0.074965905706577
288,2880,-0.0500527150186721,0.0554591156890918,-0.0180405149525734,0.032333097801983,-0.3802988596355084,-0.2900765417948716,9.548508625726642,-0.0804392701311372,-0.0424373316330315,-0.1048300411254616
289,2890,-0.0367300654951342,0.0422679722944203,-0.0310595275599121,0.0242583617816392,-0.1808937131721627,-0.2979244322563882,9.767721179034632,-0.0796830193664142,-0.0602399891050899,-0.085539943612241
290,2900,-0.0429029079986354,0.0287832511745273,-0.0303953564525078,0.0057616067695359,-0.2645965949580942,-0.3481492434124844,9.452726303017156,-0.0628881803739476,-0.0661147118794548,-0.1158194020738874
291,2910,-0.0432332923061342,0.057189942446722,-0.0152013151644482,0.0180776859723508,-0.2100380207054412,-0.381394914654517,9.625138214694196,-0.0391427436338574,-0.0467588300909831,-0.1459304796943663
292,2920,-0.0314708057672634,0.070654162082771,-0.0134036036429758,0.0178720127721781,-0.1836184244974699,-0.348454001102232,9.199016610394445,-0.0475210641486707,-0.0482406647250025,-0.1242361217736823
293,2930,-0.0087045807108939,0.0417527001404047,-0.0084729985388664,0.0312385592166917,-0.4661498112112262,-0.2736850533511391,9.288647011235032,-0.0792731155315998,-0.0489173142905737,-0.065698559687009
294,2940,-0.0239501392270098,0.0658400507491429,-0.023082606097747,0.0222650684449024,-0.2790076550969361,-0.4242285108534406,9.751897808684094,-0.0712286079277714,-0.0551968071663314,-0.0764722967611727
295,2950,-0.0278221717056377,0.0828989185693663,0.0053440597107318,0.0463728378571685,-0.3944861444013169,-0.2746160076088018,9.484169141247962,-0.1007297715330048,-0.0454303485191771,-0.0596514941289779
296,2960,-0.0318805728897462,0.0630726272979716,0.0019484812274615,0.0444271873835966,-0.3670282151044161,-0.2774634722566139,9.497583134537836,-0.0360790297533368,-0.0496129570121081,-0.1271999752156398
297,2970,-0.0283185254459485,0.0573311171774104,-0.0078259955693734,0.0345679238839789,-0.3285444699152843,-0.4428394591223139,9.557180114120785,-0.0576506688195505,-0.0345461213064496,-0.0931001604762341
298,2980,-0.0363912400982222,0.0636159265542662,-0.0002753597586595,0.0453448099269401,-0.3549324254760105,-0.3117544909122254,9.452849847264472,-0.0987372425798266,-0.0501653168081474,-0.0809728721593565
299,2990,-0.04287125118252,0.0629011093982293,-0.0127091466677722,0.0499647158499048,-0.3259543914160888,-0.2013412469087482,9.465521130460688,-0.0635624143437592,-0.049887425135678,-0.1531289799491484
300,3000,-0.0268135683087365,0.0677224859321169,0.0037183938660061,0.0467220005096317,-0.2597924869908259,-0.3897270705529474,9.180347151425131,-0.0740725518828949,-0.0578365973614841,-0.0818596378149099
301,3010,-0.024803377877944,0.0716678289411713,-0.0077876709100247,0.0426352803489117,-0.3598929621405403,-0.459878749403563,9.378943714467624,-0.0847688496334473,-0.0478238783242517,-0.0968569673940455
302,3020,-0.0137215099018665,0.0617982327700081,0.0062888187779452,0.0397460238867748,-0.3389572089011443,-0.2897165634918334,9.323825321480362,-0.066546630193697,-0.0410908031862759,-0.1211812291249432
303,3030,-0.0417483463868717,0.0478805252574584,0.0041810291272133,0.0389928112731215,-0.2297038659319629,-0.4642027756243438,9.375774687100066,-0.0768335862909429,-0.0452664133972528,-0.1261709252910082
304,3040,-0.0214277213249795,0.0665438635965561,-0.0050625483188815,0.0339357032013444,-0.2979227053915574,-0.4645560168856396,9.257175170061236,-0.0805164466062482,-0.0338469848012104,-0.0970541205832361
305,3050,-0.0092555345644459,0.0528653123361676,-0.0056201960398319,0.0388700059218882,-0.5015964184221529,-0.3681815116144958,9.031070690880462,-0.056792642064319,-0.0526750194400889,-0.0931899626824644
306,3060,-0.0109013040619237,0.0803631877872686,-0.0003650141444662,0.0325499815538039,-0.3929669099858337,-0.4449191011202681,9.333706166844369,-0.0442279566330885,-0.0497658149379872,-0.0686609157634808
307,3070,-0.0221367797512083,0.042246928882083,-0.0012202586387441,0.0349060113522271,-0.298622784665789,-0.3892949223864139,9.531870295310606,-0.0325103385403777,-0.0510360625856661,-0.1054730483697191
308,3080,-0.0259039497486189,0.0442189043233232,-0.0064950387537622,0.0481499856764786,-0.3136854902027473,-0.2960982640397573,9.366046854651447,-0.0344883297981735,-0.0608329365917083,-0.0929875582424163
309,3090,-0.0162032619479108,0.0794293135340448,0.007954266410214,0.0373665497319297,-0.3059811650514916,-0.1941661437380567,9.61164739813939,-0.099926022164226,-0.0517974455492209,-0.1041839192107931
310,3100,-0.0240111333735819,0.0597846261922886,-0.0010301132974426,0.0484842919772409,-0.4459267430218792,-0.3512108702797379,9.156974317287656,-0.0764392572302806,-0.0647894023157016,-0.1114591324387698
311,3110,-0.0253757358595219,0.0613186042787975,-0.0212532660620215,0.0491397981730827,-0.321764747123525,-0.3757498785799369,9.446622859509423,-0.0580485861022835,-0.0644977163783695,-0.111903910428863
312,3120,-0.0293452263218425,0.0482878968968089,-0.019696603740185,0.0280838234128171,-0.3846893414226058,-0.2797395403356928,9.29349012065872,-0.0756984783996339,-0.048497166757437,-0.1065777032521138
313,3130,-0.0360315599721251,0.0542877807927341,0.0111514783465583,0.0414009996917063,-0.31418776921665,-0.3737234452777537,9.196274733124891,-0.0577309976862245,-0.0651676061280895,-0.1343096481622575
314,3140,-0.0063931661064388,0.0411041940178117,-0.0127528531056043,0.0325225607835089,-0.1496962741547554,-0.4083520218613884,9.432453686298391,-0.0585198822331365,-0.0390812767073655,-0.0866539052471112
315,3150,-0.0285396457511681,0.0614904981975571,-0.012702190255731,0.0146049592623434,-0.1565776554509062,-0.3367446564545564,9.380974201116782,-0.1126210068579913,-0.05579622531877,-0.1520566173018415
316,3160,-0.0210933793794904,0.0503423027575279,-0.0065174911101781,0.0451458796041232,-0.4269707191115954,-0.4141145391700387,9.51693897008684,-0.0812455234154657,-0.0438530715714447,-0.0891610809488211
317,3170,-0.0222642511374864,0.0487871339595453,0.011656871631756,0.0360791234769195,-0.3212227096134766,-0.3041249859973436,9.43885607508663,-0.0796853487008607,-0.0424658693382662,-0.0657886462128099
318,3180,-0.0212041718203212,0.0594412716133033,-0.0093081159750696,0.0227061691910601,-0.3793478088757466,-0.484170085099799,9.516186935096046,-0.1114908440292089,-0.0306442808441683,-0.1221083480200388
319,3190,-0.0165281273217124,0.0306073257964872,0.007348090101573,0.0406540649423199,-0.3819586912307873,-0.3050684631700677,9.65993119535134,-0.1004408827573888,-0.0450242984401602,-0.0981198816663791
320,3200,-0.0398268794273425,0.0523913797206932,-0.0198102528145604,0.0348241365050565,-0.4617039697671288,-0.4796211646904208,9.43270453294203,-0.0967971164316369,-0.0520111711179149,-0.0803176863370947
321,3210,-0.0118174213698805,0.0525894489398412,-0.0192379228613981,0.0345902764526913,-0.3746722221090872,-0.3422984376911548,9.276487550020772,-0.0813504440895095,-0.0618427775769986,-0.0703849285013784
322,3220,-0.0290224579710879,0.0686741208916957,-0.0227808180200512,0.0256606144174292,-0.2547185634173489,-0.3496975794608141,9.297534783937916,-0.0837312630071973,-0.0349002977507959,-0.0751683394998777
323,3230,-0.0224871936757659,0.0323679041405295,-0.0255103476634059,0.0128746133023137,-0.2203465620668898,-0.3179950069656798,9.011928534641036,-0.0317098448320038,-0.0491249934486025,-0.0945156402336367
324,3240,-0.0202469905497142,0.0388690598433507,-0.012533701206707,0.0489303838635929,-0.2509147312895616,-0.2839541178834933,9.326764357618742,-0.0881012633095778,-0.0604211071882345,-0.0794611606594194
325,3250,-0.0267603972393552,0.0531237972824856,-0.0046798325024654,0.0370209508069235,-0.3370924888309511,-0.3610262763825776,9.71063393506692,-0.0462375227079744,-0.0635402949053855,-0.0897006602542547
326,3260,-0.022075129264826,0.0538754882063483,-0.0161961149511551,0.0296316424584728,-0.3441998375422902,-0.4079363880993494,9.611893523155386,-0.0985009097110707,-0.0583834953895099,-0.0811509167125015
327,3270,-0.0185614905962664,0.0439981596156084,-0.0024149207227941,0.0291955263005214,-0.3735433383721142,-0.28429247809044,9.199613642137566,-0.1029502971450536,-0.0449660381015432,-0.0644727024806274
328,3280,-0.0206607170559904,0.0538029135662311,-0.0115296837389089,0.0289215126691638,-0.1962438972564144,-0.2750956660821273,9.192731881350417,-0.0837397597394179,-0.0464635512694138,-0.1080327984424313
329,3290,-0.0226151974382894,0.0558998440931516,-0.022596731410851,0.03984108644672,-0.2856194980754228,-0.1801299939601239,9.297385444758577,-0.0982519910396751,-0.0685018021684861,-0.1203586205736803
330,3300,-0.0199742675734664,0.0390788892471035,0.0103695639943185,0.0364099753539308,-0.2887592753514262,-0.4477958789546127,9.129287547613751,-0.0654896298433278,-0.0610712611260265,-0.0958043808546603
331,3310,-0.0252728802804999,0.0482492802417383,-0.0022526434197128,0.0204413016570203,-0.3824628653087593,-0.3543409075426671,9.584388698273909,-0.0977956445085524,-0.0414478500598807,-0.0974091868984424
332,3320,-0.0451341294211405,0.0497675230086003,-0.0008704415026779,0.0417538359934485,-0.2873140356721937,-0.2681816556358903,9.605487402054676,-0.1026144944131994,-0.0380173018620678,-0.0809470716349533
333,3330,-0.0438019335635179,0.0277797273455563,-0.0212753168308554,0.0234008661765334,-0.3372138368748609,-0.1952525071899527,9.625362336487909,-0.0920831966194605,-0.0568381783158695,-0.0754436367795973
334,3340,-0.0387871757187538,0.042613550968618,0.0032026018831719,0.0324016578031475,-0.067076855211451,-0.1859552176117254,9.276655758217515,-0.0901598294094111,-0.0361797017245045,-0.0927281973411753
335,3350,-0.0336521114443351,0.0553152770607659,-0.0057492342547239,0.0112319698545126,-0.0559928189411498,-0.3696144489559383,9.357875926662398,-0.0661025645990178,-0.0229361696725862,-0.1391369690309594
336,3360,-0.0191682816713346,0.041447842287649,-0.0330251800616073,0.0233424415804316,-0.1758251649723365,-0.4054926657900837,9.5793460727302,-0.0875763359238191,-0.0307174290584591,-0.1001534434053692
337,3370,-0.0287376292714528,0.0678375412518254,-0.0010526828767185,0.0390947941120601,-0.1977244434746279,-0.3546242343686054,9.326132231966458,-0.0825584435454178,-0.0494125238255355,-0.0791645100436544
338,3380,-0.0228153727364591,0.0453920057784874,0.0018409642250363,0.0327905570839932,-0.1667049248269241,-0.2022151228479506,8.891446371852476,-0.06955811435869,-0.0479708533056371,-0.117467462700368
339,3390,-0.0260680657714856,0.0550942367425232,-0.0037990780832593,0.0335325230179147,-0.269955287826259,-0.2819581073571843,9.204552540121629,-0.0626927448299608,-0.0423829237338719,-0.0766322684885249
340,3400,-0.0281448609567873,0.0551695474137218,0.0055038999646533,0.027470210222689,-0.4335899473116783,-0.3165470609974978,9.062913426936788,-0.11004534983191,-0.0311120455155537,-0.074114564491207
341,3410,-0.0031084386385546,0.0276784679641008,-0.0184040219402797,0.0353910858934916,-0.121514802675258,-0.3199685761317507,9.189367072535903,-0.0797726205604683,-0.0538894884150057,-0.0550075930523108
342,3420,-0.0061522779342459,0.0526939973015681,-0.0149740906453148,0.0587594170826825,-0.3747329529957358,-0.2775397404772475,9.411795254384524,-0.0827109804181418,-0.051456252184918,-0.0858534686874344
343,3430,-0.0047306913117117,0.0595668264775016,0.0055034353123026,0.0513802573222374,-0.2736372504203428,-0.3270792063767979,9.56347983569828,-0.1047876666434323,-0.0611197656269673,-0.1058728586479237
344,3440,-0.0232033361717145,0.0370328963867359,-0.0053737746641818,0.0301107302932361,-0.2118210297244013,-0.2287455757925818,9.1608647900868,-0.0953977636578532,-0.0572360185505419,-0.097456929119657
345,3450,-0.0197489008783622,0.058904599485367,0.0009613060295878,0.0331807661494179,-0.3314799539397214,-0.1447900138534574,9.350922625533627,-0.0742447147388866,-0.0499342906280294,-0.0895551849599713
346,3460,-0.0088468030971399,0.0551396502333072,0.0125653833160484,0.0224754246992418,-0.190783682422683,-0.3368755968321239,9.81867906546255,-0.1020150048150618,-0.0506634688370546,-0.0801698393775433
347,3470,-0.0095318153348738,0.0561545806815856,0.0084690114893216,0.0565290287579606,-0.1914121195760482,-0.3775393842402605,9.466481833190583,-0.094407613333226,-0.0384596512228031,-0.115460693439827
348,3480,-0.000146855742063,0.0701440375507141,-0.0026116908218129,0.0369323169245751,-0.356499940218046,-0.4653677917845146,9.415203861928504,-0.1005752044107141,-0.0483292193133281,-0.0826983802223495
349,3490,-0.0043300309887262,0.0694861460955385,0.0004657622384043,0.0372773159872566,-0.53675976814154,-0.2474591289300031,9.255440396724431,-0.1087565045169767,-0.0535671724605741,-0.0547579317320368
350,3500,-0.0142436531252028,0.0760452185216794,0.0128054558543589,0.0482237821773183,-0.2154219027242679,-0.3371219148106593,9.546880705860364,-0.092927956844478,-0.0507393896781502,-0.0686745050880881
351,3510,-0.0232721353386531,0.0692136234543124,0.0156680024657729,0.0494032839102222,-0.2088140277644082,-0.2585370723065131,9.109172877593007,-0.0809894764974558,-0.0402702407631987,-0.081942326774208
352,3520,0.017879633105132,0.0734739719731461,0.023708046374594,0.0537421587451778,-0.3259152173037218,-0.2707980922985379,9.57817781134731,-0.0670426968722593,-0.023915826438927,-0.0959707153228888
353,3530,0.0200879770654686,0.0742315400127056,0.039675285331258,0.0539802194566075,-0.386420316768689,-0.293589117427757,9.318479938154072,-0.1415046495027732,-0.0504334835942125,-0.0943711303937251
354,3540,-0.0093526498422364,0.0438966812762595,-0.0017885849169554,0.0385535968581067,-0.2975154333021161,-0.2582035400541204,9.603709160661433,-0.1345823483351269,-0.0588112070745316,-0.0570650956887321
355,3550,-0.0020181890452295,0.0631322654659889,-0.0082407978155111,0.0522656546899143,-0.373196737469651,-0.3032381089354844,9.228372560170854,-0.092946481469887,-0.0292749504193155,-0.0714715711745059
356,3560,-0.0121073659943393,0.0494058016464091,0.0040702216184944,0.0357513106558904,-0.237413535976686,-0.2999981024759069,9.436752955055864,-0.103217538619206,-0.0679569791146199,-0.1149986137655127
357,3570,-0.0211707817242665,0.0604295505191671,0.003923274969715,0.0373467538774862,-0.4402699591909976,-0.1739779021258645,8.852888491629592,-0.1281714802014784,-0.0388424582018404,-0.079332327162486
358,3580,0.0056476986296411,0.0643265540227854,0.0137490344055648,0.0311977113093788,-0.4720540136761705,-0.2730921890180577,9.586184839330144,-0.0745743539501745,-0.0478837886959572,-0.0629949353375376
359,3590,-0.0184057403223445,0.0647728770648214,0.0199003545206877,0.0371979580881539,-0.4478008979680726,-0.3314423795713225,9.31249992576428,-0.1187354314756299,-0.0392161678302971,-0.0994914705030034
360,3600,0.0052848427923072,0.0967458834321842,0.0045363767197985,0.0570686788420566,-0.5274235639917527,-0.3006433028056452,9.353489060614756,-0.1028705708019176,-0.0422477179943753,-0.0940020213370206
361,3610,-0.0022720274046793,0.052570368369954,0.0265419724840548,0.0314870483948805,-0.0098539162962383,-0.1805281294364849,9.034898923499538,-0.151398527701641,-0.0335085185774623,-0.0721035006599728
362,3620,-0.0266204223702923,0.0314289287598474,0.0171827478535492,0.0336827179868667,-0.1443719951356208,-0.3034860644870536,9.405463789775949,-0.0996549620292569,-0.0454206773582853,-0.0932719813523202
363,3630,-0.0127701916529556,0.0506635271983553,0.0055681322578436,0.0369332786245653,-0.2251891408783649,-0.1001695621822646,9.39165969584644,-0.0843162213739326,-0.0510672909779729,-0.0986043026944052
364,3640,-0.0210521219427203,0.0409062373006089,-0.0218515001280392,0.0303145982829717,-0.3957739223495128,-0.3105412364616984,9.779177581078704,-0.0852308435520026,-0.0255325102193781,-0.0890746623718455
365,3650,-0.0104720009492371,0.0659638322354682,0.0145780756869382,0.0527896622174475,-0.484554288739833,-0.3066156237206787,9.156949317551437,-0.1122275713700947,-0.0429435271630136,-0.036861434687443
366,3660,-0.0171672637020815,0.0537786300036813,0.0108526598497537,0.0353385228365947,-0.064272823536618,-0.3584272437327715,9.38712590736822,-0.1136204758621876,-0.0391821422103658,-0.0797297166129547
367,3670,-0.0323023486777101,0.0531009398149605,-0.0098818319132105,0.0390803065405822,-0.5575401016119989,-0.4837953949582726,9.294750975678635,-0.1077939081828854,-0.0579699022996253,-0.0674858272831606
368,3680,-0.0068278178097315,0.0474025770711492,-0.0048481682594483,0.015294881532969,-0.2980872357834939,-0.3951120538005052,9.203204610394211,-0.0822839308959021,-0.0520542489415781,-0.0685417912707472
369,3690,-0.016340858445875,0.0343935355054773,0.0062686344116968,0.023142870981329,-0.3312184802698363,-0.3101093198740621,9.369545892004233,-0.067794657099892,-0.0432987938483428,-0.0707264283886111
370,3700,-0.0430440618348164,0.0223189747327184,-0.0195401717509649,0.0061142621689029,-0.4110114530283881,-0.3385099675119612,9.207703797233169,-0.093381193230933,-0.0386203493377493,-0.0745323610478688
371,3710,-0.031531045553509,0.021887272722799,-0.0100532730731259,0.0296269917696335,-0.515837733892221,-0.2027868434238652,9.626454893208736,-0.1089063172025949,-0.0341610587369008,-0.0600473399482594
372,3720,-0.0025811494889795,0.0272989652985801,-0.0199552762341985,0.0196188426361711,-0.1663452402229776,-0.3460327088706977,9.43109287357738,-0.0982490969764906,-0.0367611111721708,-0.0248474515672664
373,3730,-0.0253369160603668,0.0277718798572591,0.0020253307968914,0.0352403658313929,-0.3515895033843631,-0.2527170240050285,9.422922699483088,-0.0849484990204622,-0.0478667029341736,-0.0406513658359234
374,3740,-0.0249251856703588,0.0337055058953317,-0.0033094269886559,0.0172556252781154,-0.2102702838206847,-0.3263996726753206,9.512671740312609,-0.1273478618221261,-0.0423352356863752,-0.0827676512469806
375,3750,-0.0235379346886146,0.0313528258509755,-0.0111041907188662,-0.0103623868866299,-0.3366259576339477,-0.2716092787376851,9.810225081871662,-0.1096003189971198,-0.0467523636311886,-0.0768929644414095
376,3760,-0.0240050880827992,0.0131213610091983,-0.0303727086644235,0.0032451319563429,-0.1844713787178095,-0.2904442532800284,8.865582754744178,-0.0954957539223027,-0.0480551473069438,-0.0632411918654459
377,3770,-0.0238364431306964,0.0239235845957447,-0.0090248034336026,0.0175075280608567,-0.2068487020054074,-0.1951038257601219,9.094417065323034,-0.1002738250138286,-0.0570324481019125,-0.0772316613599508
378,3780,-0.0285595341324873,0.0171904654991579,-0.0093357642565756,-0.0046583390376418,-0.3863373732655308,-0.0799034135718082,9.013615191018104,-0.0999515649228093,-0.0366922752232058,-0.0780105783727628
379,3790,-0.0303768573175871,0.0317869331519723,0.0026391649406771,0.0207996840211499,-0.3097265960065276,-0.1832783160017074,9.566929883152028,-0.1212896946974378,-0.0307827679729036,-0.0740754584374521
380,3800,-0.0314503304258028,0.022999613426943,-0.0102065818728405,0.0042911949058606,-0.099056811848485,-0.1315986457290415,9.357145416488022,-0.0825730840611808,-0.0502638802045053,-0.0096599232403438
381,3810,-0.0393052406174713,0.0144716288272682,-0.0081697717933668,0.0211772260970828,-0.2381807305456248,-0.307325830285887,9.317596357596395,-0.0748115048973094,-0.0282601608682343,-0.0881345140618912
382,3820,-0.0382138745400384,0.0411898626332701,-0.0153313207976347,0.0291203246561366,-0.3243929211275627,-0.2736945415939362,9.287709377095352,-0.0645679149441645,-0.0254375271324906,-0.0504257517740903
383,3830,-0.0171595254050101,0.0379515228357032,-0.0135731333021045,-0.0029147596538342,-0.405280730919515,-0.3897337300295913,9.3331721835369,-0.1300487508731157,-0.0424256643527539,-0.0620102033790498
384,3840,-0.0263692259426973,0.0156605866914865,-0.0217863294269498,0.0202437295221247,-0.4024380637465887,-0.2866074723900635,9.344082242594,-0.0783911186662869,-0.0409499185738544,-0.036499456361678
385,3850,-0.0391318399629479,0.0073414070456177,-0.0152313516213475,0.001716808999712,-0.1800141228610026,-0.1947175174171678,9.403581753687506,-0.1189591477171196,-0.0421629145039457,-0.0475198732055274
386,3860,-0.0390191440968102,0.0215303403452021,-0.0136531883088873,0.0125492560619033,-0.1496004023616469,-0.3211241704026835,9.049253802798376,-0.0891441208478664,-0.0321878602469421,-0.0537326904332193
387,3870,-0.0285827431966529,0.0074847737894161,-0.032570242155733,-0.0099759261947015,-0.3479803100745229,-0.3203407876158128,9.29415669550341,-0.0472157475953674,-0.0180087633750281,-0.0853567922518716
388,3880,-0.028948280723113,0.0349791188196912,-0.0145993078922558,0.0119010355818348,-0.391166976553337,-0.3552351909996544,9.158641018009224,-0.087468511945385,-0.0405650693005376,-0.0491126203261308
389,3890,-0.023857375368052,0.0320573643563666,-0.0229606590642107,0.0038619133733075,-0.1882685634630633,-0.3350043602352852,9.371392696233926,-0.1039977243389057,-0.0422774582961133,-0.0636858748750989
390,3900,-0.0271551168432792,0.0123303643925324,-0.0146171655765223,0.0103227435927346,-0.1527342539964489,-0.2264656080687633,9.492287359165433,-0.0833170365282667,-0.0425487612953999,-0.0507109714075236
391,3910,0.0051520634771423,0.0274127658132586,-0.0042154636238828,0.0343071509633125,-0.3365633653682275,-0.0633290827300531,9.177070177337043,-0.1188999672274911,-0.0514815553162907,-0.0802407402412269
392,3920,-0.024816021902609,0.0444061966396452,-0.0204019442832763,0.0278959715275696,-0.2694108130816926,-0.164208840599811,8.940379424159424,-0.121104403455365,-0.0437381120982831,-0.054668030081684
393,3930,-0.0117461564057881,0.0191791639258777,-0.0041531857883308,0.0149551361829807,-0.2813220098633562,-0.2669972688486453,9.524027014792198,-0.074076488146076,-0.0329482483853269,-0.0598297372784788
394,3940,-0.0246195407595412,0.0358499034433947,-0.0140447392658102,0.0172654248727702,-0.3225661284814679,-0.3991475157956787,9.47918489082887,-0.0547842821507616,-0.0289445169829343,-0.0561185588997426
395,3950,-0.0290555982187048,0.0217025591467568,-0.0253357404181756,0.0114540798899236,-0.142626060162946,-0.1595919538000071,9.296273264771289,-0.0781901040905103,-0.0372172517982649,-0.0487139626133843
396,3960,-0.0169911852147934,0.0243658031199783,-0.023888619305507,0.0208768860474049,-0.2590394345422068,-0.1727158366843848,9.4828774544307,-0.0971799751541942,-0.0371977878546212,-0.0890180962042084
397,3970,-0.0182242705766342,0.0315352316069138,-0.007311160795278,0.0212265124302092,-0.2113080470569426,-0.1460076088725424,9.224908123848456,-0.0889547149116914,-0.0422025290483196,-0.0182911550650923
398,3980,-0.0399639991712803,0.0344391724616357,-0.0094325383812604,0.0339870321881583,-0.2177687358066789,-0.2494970150916918,9.254318089893772,-0.0859363263694812,-0.0209193580186145,-0.0614031690654221
399,3990,-0.0153633640477549,0.0241344100008779,-0.0070500171475081,0.0163494125107504,-0.3226775754979689,-0.1629242168239338,9.260967610933236,-0.1039706376447966,-0.0197152525095091,-0.05652101798773
400,4000,-0.024024387205681,0.0295499331391288,-0.0013952337204611,0.0059034625475185,-0.0322770855799176,-0.3984856646988619,9.363581256301302,-0.0824380727349078,-0.0277868965387474,-0.0512743842846659
401,4010,-0.0217637601432651,0.0273003686995985,-0.0184738557823801,0.0111240850812497,-0.2590962875645007,-0.2927851922449833,9.319802441516162,-0.088725447293472,-0.0399378987515153,-0.0062839338724985
402,4020,-0.0278579230657881,0.0143807312003072,-0.0120718502384585,0.0068376700737288,-0.316970613936153,-0.2824158049148516,9.152456228794124,-0.066019919530969,-0.0146308811226734,-0.1010606580870241
403,4030,-0.031971272510591,0.0372871848785149,0.0090581371609059,0.0308955452620665,-0.0085660044844924,-0.1499744457715059,9.497751012607676,-0.0809345444304809,-0.0311251652281674,-0.0562467432599618
404,4040,-0.0264817586158451,0.0277417671063057,-0.0228712099926035,0.0041418655077005,-0.2040931706988026,-0.330655788135956,9.57646320664556,-0.0567761923915125,-0.0454631757412612,-0.0796836588545233
405,4050,-0.0315542752222272,0.0186974070634362,-0.0322546239404463,0.0159363868774618,-0.2276086782390756,-0.1141898924456323,9.23005168448117,-0.0870541201527396,-0.0204888855583384,-0.0608423306712827
406,4060,-0.0379234330206467,0.0042889435724051,-0.0145713260135489,0.0109299292124179,-0.1915722787369197,-0.1464939965630669,9.219781831288174,-0.0978703336801599,-0.0285221015237451,-0.0553322005382891
407,4070,-0.0441653345084714,0.0250646600343985,-0.0191892347043248,0.0163102780832358,-0.0851502150336326,-0.1733458928579394,9.326806335785006,-0.0843004374140158,-0.0203599835231043,-0.1018767157358704
408,4080,-0.0196506782517273,0.0223993113546404,-0.0168168470528578,0.0060787477384971,-0.1899365627769733,-0.1189054384726421,9.460676388752177,-0.071294858785886,-0.0368354410278848,-0.0783998560465041
409,4090,-0.0386794833202369,0.0221435352547079,-0.000885441701515,0.0021080862493868,-0.2491803260716724,-0.2335590393585652,9.44149471467084,-0.0849873458507139,-0.0276120392180756,-0.0430328004260073
410,4100,-0.0346256791106084,0.0053927398296778,-0.0285802028545657,0.0033467535066778,-0.1338866813266543,-0.1846279603508133,9.30467730251712,-0.0690304378350988,-0.0244392981757121,-0.0578262512207084
411,4110,0.0013270021155826,0.0178313165962858,-0.0192168951400861,0.0005232395008322,-0.1978566124261353,-0.2429551197038088,9.578717507127738,-0.1019549181408879,-0.0412459161215482,-0.0665803138638999
412,4120,-0.0278786192715211,-0.0064985564951374,-0.0187830815804615,0.0025193471947281,-0.1652810929211085,-0.1722656201395217,9.65554619576837,-0.0707361431052403,-0.0290931983613254,-0.0772000314794104
413,4130,-0.0274572879945095,0.0030678559702668,-0.0157947273798621,-0.0034020505204967,-0.1579113571637735,-0.0701952192974775,9.279498127413229,-0.0871558180677447,-0.0207501146471482,-0.0665883892638355
414,4140,-0.0429560007674122,0.0140785020208168,-0.049439358105041,0.0055670225800007,-0.1743653903763791,-0.1232148214270708,9.670221995938777,-0.0648722980399988,-0.0394075519209043,-0.0389979353681347
415,4150,-0.0455579766115588,-0.0190048225175763,-0.0337124003001652,-0.0006665514147137,-0.1708478715914345,-0.1690939609258494,9.362237777397386,-0.1243624668328962,-0.0267242045950561,-0.0566757533556117
416,4160,-0.0262865096261608,0.0215024664689517,-0.0175740964790539,-0.0011571445788354,-0.2400103862091506,-0.186008065163722,9.440197835023564,-0.0606257034915212,-0.0345077793502034,-0.0197417227215256
417,4170,-0.0410213141957119,-0.0098044166754247,-0.0379676984781172,-0.0238155058219462,-0.0026023456583574,-0.1352636042137599,9.642580711296487,-0.0735722976147539,-0.0347589668623199,-0.0636234128205697
418,4180,-0.031411892316536,-0.0094112843389857,-0.0294759487701544,-0.0123411041942355,-0.0182465546489267,-0.3031953706263603,9.701388435212769,-0.138547923106541,-0.0230071161662091,-0.0420832956886288
419,4190,-0.0424625972359878,-0.0071408631216169,-0.0428826634201336,-0.016895572497235,-0.1112640743024972,-0.2420449915465948,9.73511494343068,-0.0786462571652142,-0.0382922607643641,-0.0466861141694599
420,4200,-0.0369515687242096,-0.0065823392027424,-0.0388896490426279,-0.0017514808836157,-0.189712132828855,-0.1005150727656465,9.400214167388476,-0.0821285035049121,-0.0225238645092468,-0.0492638841595506
421,4210,-0.0494687755922949,0.0073488150736955,-0.0434446405898531,-0.0210658714682731,-0.0762052242056683,-0.1394756934240387,9.431281485757548,-0.0988123423050965,-0.0241949816417793,-0.0475253333414449
422,4220,-0.0449701247141565,0.0026106821202763,-0.0231242933182784,-0.0130210446514942,-0.2231063636344684,-0.0120245294666606,9.65677074881319,-0.0755341967843867,-0.0387608506989712,-0.0462950251039137
423,4230,-0.0512635226996236,-0.0140093750772935,-0.040794476304191,-0.0097261036458576,0.037774344595444,-0.1613393659891933,9.19967684324645,-0.0463781282267806,-0.015609688854152,-0.0769281592920954
424,4240,-0.0666349458325931,-0.0227374142824714,-0.0252274230197228,-0.0233350885353658,-0.3488401309633868,-0.0465943060415262,9.22716765966259,-0.0669585735499904,-0.0218412066195909,-0.0438094407739594
425,4250,-0.0440859497293859,-0.0239600396531892,-0.0444421558529133,-0.0129148754457609,-0.0037639604688466,-0.2408623984767609,9.453552646876988,-0.0821154955158496,-0.0473532802898655,-0.0733608511307284
426,4260,-0.0436749681547361,-0.0076081173032578,-0.0249504322096369,-0.0310793204508159,-0.0510249718271253,-0.0444489764239088,9.764386280008706,-0.1152241089823559,-0.047283971535525,-0.0180276115277789
427,4270,-0.0526817552210343,-0.0073951267121984,-0.0489441003258032,-0.0358447408548344,-0.2112081804558509,-0.0271013693867082,9.493147949409517,-0.0779471378862828,-0.025079871718032,-0.0477825542384696
428,4280,-0.0463674106727958,-0.0072624115412059,-0.0329730698578746,-0.0152638636715408,-0.0931451516508676,-0.0820097829168784,9.538043218338546,-0.068344484990939,-0.0320348433361433,-0.0409684936438673
429,4290,-0.0596438087714227,-0.0092875592360921,-0.0442675213981899,-0.0275009539769005,-0.0809307888812557,-0.2656100879176378,9.439404934252082,-0.099796816899492,-0.0203739208794108,-0.0203942156064126
430,4300,-0.036570064085886,0.0077397295335543,-0.0476546937536509,-0.0212781101937302,-0.3372461539141036,-0.015847590468249,9.49914822721514,-0.0766273169292345,-0.0283577202318122,-0.0258149279719649
431,4310,-0.0315497857322787,-0.0004076862766929,-0.0226155105456548,0.0138710194834772,-0.1362769653156463,-0.0151491240432872,9.449316966449864,-0.0764476205350581,-0.0223340907377321,-0.0214365506007478
432,4320,-0.0361944420638708,-0.020831221335054,-0.0301704536632451,-0.0032223220483816,0.082204728231144,-0.2129846733464807,9.03945435167776,-0.0732052264096722,-0.0280845509213277,-0.0110427870588873
433,4330,-0.0491253101860828,-0.0108031354938213,-0.0367137426888945,-0.0112666155094399,-0.1701937499442228,0.0482830386059981,9.538853458958892,-0.0838356574238745,-0.0131445627294091,-0.0421015100227673
434,4340,-0.026878565781715,-0.0109141280633461,-0.040706198715424,-0.0161889712328448,-0.3087378208090225,-0.1498684374504734,9.248843370555903,-0.0189498110279214,-0.0263408242948076,-0.0082098770503626
435,4350,-0.0520159327278777,-0.0144316242762728,-0.0540938428293149,-0.0184603666001914,-0.1021395406040589,-0.2664719231421016,9.309671357491858,-0.0801582601986311,-0.032738955082946,-0.0339440570302432
436,4360,-0.0337057063545483,-0.0185063601998341,-0.0190408449714355,-0.0165919593036299,-0.3426019813388541,-0.0437685948250395,9.492211707051714,-0.0341489122357282,-0.029183165645855,-0.0187639420596841
437,4370,-0.0362072967150566,0.0059406733583927,-0.0317096999888466,-0.007447499418103,-0.1527420947303507,-0.1386877745909128,9.69558314419897,-0.0557908643359004,-0.0415636144183905,-0.0061654298748417
438,4380,-0.0174437302353497,-0.004837406256037,-0.0199211348203197,-0.0210222587796942,-0.0213749667153382,-0.1509868536361268,9.335217982142808,-0.0333671915559827,-0.0234359632858114,-0.0453119399931281
439,4390,-0.0402805109608704,-0.0035412869534066,-0.0498766997341485,-0.0235917653019161,-0.36508409605734,-0.0506492557818289,9.73394214940503,-0.071352227627756,-0.0157746692066375,-0.0072689448238809
440,4400,-0.0334540612191995,-0.0090470275417341,-0.0328798090367898,-0.0064968213377938,-0.274835250521149,-0.2126416409721729,9.614875630149042,-0.0720636659743321,-0.0318298751132783,0.0149938669480874
441,4410,-0.043762433964766,-0.0117975418639076,-0.0234879884230041,-0.01888583607415,-0.4056296870179198,-0.1658353034655091,9.203463156487754,-0.0240643446122292,-0.0209609574872909,-0.0254443721048856
442,4420,-0.0328627726395781,0.0084553000629276,-0.0269412197696503,0.0043387450010651,-0.3576068676848846,0.0216582198145268,9.584887037228718,-0.0503524144274445,-0.012554606125172,-0.0479021585102693
443,4430,-0.0451855895175758,-0.0199464204213719,-0.0362183373584771,-0.0167128185815608,-0.1731735185625547,0.0910628270740124,9.37988900784793,-0.0760151574539668,-0.0402526274427267,0.0255824365459081
444,4440,-0.0088726153578774,-0.0178222776334378,-0.0133532000436315,0.0066788428311993,0.0647350777541749,-0.0858123590478913,9.168977699487986,-0.0446620984272285,-0.0284100235694611,-0.0112275700281117
445,4450,-0.0095915968814972,0.0133397177106608,-0.0158393679759581,0.0255701051774828,-0.185988146561457,-0.1413398326672428,9.531929843663274,-0.0536889332755136,-0.0139976769355503,-0.0116374057101713
446,4460,-0.0106736975515138,0.0015794775009696,-0.0175811714818223,0.0026722582862136,-0.0030777800091622,-0.2142710456665615,9.991547634207626,-0.0006193785979761,-0.014388604469867,-0.0398737389583186
447,4470,-0.0127286856640558,0.0025738640500283,-0.018056276589841,-0.0023728426234934,-0.2391851241564474,-0.107817973607014,8.984070301069071,-0.0416070540402934,-0.0374880586729238,-0.0267330429773693
448,4480,-0.0301706886468832,0.0198511698653299,-0.0070123288148784,-0.0064348007156105,-0.0729106555254737,-0.1986795350576095,10.084287664236816,-0.0501126906631441,-0.0099688561803685,-0.0059996873974054
449,4490,-0.0237576286973588,0.0103922994437265,-0.0038746855294221,-0.0163063953141207,-0.2687856024125972,-0.1739676347808508,9.553186077074365,-0.0508105430601722,-0.0327263231414855,-0.0303223449548745
450,4500,-0.0285647364286805,-0.0089132590282135,-0.0174814171204312,-0.0238379475872691,-0.015502905835593,-0.1884022147938558,9.606388506180672,-0.053279553330737,-0.020213969570868,-0.020067390146604
451,4510,-0.0245730853465795,0.0011218582104426,-0.0273485803100651,-0.006195142774372,0.0030236026672326,0.141146983086273,10.001409185171369,-0.0619131047657879,-0.0127376559210993,-0.0433297923143598
452,4520,-0.0102546080373526,-0.0040216009955057,-0.010343104075866,0.0082397674800647,-0.2156130648720785,-0.070901342417309,9.576433244860825,-0.0757551908537149,-0.0128573735010843,0.0112338452162797
453,4530,-0.0454862228275739,-0.0106445159497518,-0.0315238329768626,-0.031858925332922,0.1230345618471652,-0.2711424326031255,9.641765062834295,-0.0386951161704064,-0.0238535761499674,-0.0144503997081689
454,4540,-0.0059392303082168,-0.0088573725053807,-0.0199574271749426,0.0041098629190639,0.0720777533561934,-0.0648435990446557,9.73647895820218,-0.0530030212716677,-0.0178519485296916,-0.050586923603582
455,4550,-0.0055529642454457,-0.0030063541070334,0.0008047789951868,0.0048762055752858,-0.0807944846882552,-0.079290901425906,9.507806591011072,-0.0635355026913306,-0.0100792839857234,-0.0257357890846109
456,4560,-0.0254707782489173,0.0242039105995378,-0.0086434832396097,-0.0115964433793812,-0.0938810567992295,-0.1130743487042633,9.59083094694318,-0.061413366305931,-0.0112075423989059,-0.0213171131643273
457,4570,-0.0204940683302214,-0.0118589425750131,1.819473541946753e-05,0.00560048444184,-0.1928000987694891,-0.1137235555993526,9.771876815034572,-0.0552268059473941,-0.0250193450139088,-0.0475064294347903
458,4580,0.0002071073621665,0.0083707845895918,-0.0114539013355744,0.0101860780272329,-0.1166354435457119,-0.0744281629698905,9.305389295813924,-0.0377600496659312,-0.0259034732360693,0.0036036668724166
459,4590,-0.0062390197547893,-0.0003460957475066,-0.01701453290947,-0.0032664283372218,-0.1753715397375994,0.0135546771379452,9.72648702296798,-0.0525824670805354,-0.0127986041971477,-0.0056848546491306
460,4600,-0.0217906544848564,0.0078767416187161,-0.0065968140230278,-0.0050885116688433,-0.1886630421636286,-0.0835913960750905,9.613486528982836,-0.0674699366277795,-0.007189489762262,-0.0173449968568067
461,4610,-0.0201774918453376,0.0194432216184715,-0.0012899422451394,-0.0074134176154934,-0.0837723966668824,-0.1657079542656357,9.818018037153095,-0.0221539786806834,-0.0122820895424758,-0.0183199917708557
462,4620,-0.033345249825078,-0.0238502684926353,-0.0034802079089073,-0.0146709713430756,0.0404631126972204,-0.1338884832742529,9.505869220533064,-0.0367119462598534,-0.0153045545636585,0.0294845626072385
463,4630,-0.0144413894978373,-0.0103331135349307,-0.0152795723963633,-0.0083072345420512,0.0586547695272228,-0.2107233985849634,9.52249245064072,-0.0055533368108992,-0.0123112001402655,-0.0520806196131124
464,4640,-0.0247832525288307,-0.0032023285039554,-0.0080653810483449,-0.0165526034636252,0.0137474531701617,-0.1473415489920417,9.708871519087657,-0.0187288359369758,-0.0148409008442126,-0.0201823172101531
465,4650,-0.0210312695582319,-9.861264832314048e-05,-0.0237619516611271,0.0011441856975345,-0.0685041047838147,-0.0163510866370416,9.999332182612738,-0.0207263706209998,-0.0010450805692036,-0.0406656856131974
466,4660,-0.0105995453645466,-0.0009143959996718,-0.0094878386813247,-0.0007915497515263,-0.0450572498422721,-0.0486938127052332,9.678633413669507,-0.0076684966691891,-0.0123414405065256,-0.0372416433279446
467,4670,-0.0289295654393865,-0.0249200174918941,-0.0199207923607155,-0.0115418647915723,-0.0513096702362158,-0.0721366178083709,9.517462241812511,-0.0263693491465966,-0.0273811860632773,-0.0432035924426988
468,4680,-0.0198728674899653,-0.0345476306200677,-0.0049661363109008,-0.0074330903098098,-0.2512143916126182,-0.0054431140617104,9.411981098038064,-0.045009475624062,-0.025542719441501,0.0296623234760897
469,4690,-0.0224488514734286,-0.0006453065608059,-0.0299939964782561,-0.0147428228878848,-0.1745770368676273,-0.1450382077247302,9.380879875540463,-0.0262175861627662,-0.0148854983549214,0.0195329543540626
470,4700,-0.0176697802970766,-0.0217043099171688,-0.0337659648473666,-0.0105224522940656,-0.0804649294888695,-0.1867174258445144,9.733987802156774,-0.0620966423631791,-0.009279573853609,-0.0203526489256744
471,4710,-0.0217121813117894,-0.0100680151558768,-0.02988015407272,-0.0224596146259687,0.0029739528118736,-0.0530783526223547,9.82963372714163,-0.0369784844522065,-0.017882083343592,0.0093915657814381
472,4720,-0.0153146224895405,-0.001352878627814,-0.0252976524241341,-0.0062120054293155,0.0778756149256232,-0.0311493733727763,9.617708097512288,0.0047416955100189,0.0094886732553819,-0.0254164916063127
473,4730,-0.0218333748278308,-0.0214663607828756,-0.0023533701473003,-0.0033545023159911,-0.2299249516184162,-0.0886775208743092,9.400224316482188,-0.0539922960044498,-0.0099781952947918,0.0032969408536234
474,4740,-0.0319593280626017,-0.0181205720816459,-0.0156332398279159,-0.0142269641595758,-0.1427161906316222,0.0119858021128515,9.612962351962988,-0.0358438591356298,-0.0074038658167895,0.0110951299320723
475,4750,-0.0172048704183177,-0.0084020607558074,-0.0127696879104234,-0.0208611158093007,-0.1327957588306539,-0.1982381933834839,9.60642335472722,-0.0014713800316207,0.0105764130450325,0.0299941631903983
476,4760,-0.0233178395106466,-0.0157805248676678,-0.0177907644332723,-0.0302796626039501,0.0683700271559914,0.1125179279891605,9.651767018822062,0.0141547576657135,-0.0108831881868843,-0.0165189582256501
477,4770,0.0040695471059453,-0.0033249772798582,-0.0305800829770405,-0.0089404692002117,-0.103261967381503,-0.07273277766769,9.866767146505198,-0.0077593417912227,-0.0023822316921942,0.0245443780180697
478,4780,-0.0241308066848762,-0.00766936530144,-0.0209706673602769,-0.0242656344186715,0.063759264758659,-0.0778040967055848,9.725335359799804,0.0037486946219425,-0.006255173729243,0.0079270269550757
479,4790,-0.0129811715955567,-0.0283367885926062,-0.011529674843625,-0.0139374383814364,-0.0364248753275099,-0.1853053758822774,9.561821985995826,-0.001736129663145,-0.0005147913997268,-0.0718875188658577
480,4800,0.0006164826938339,0.0112196067171467,-0.0133494329552897,0.0001401904850899,-0.0923424124836069,0.0376052550225866,9.90327974772972,-0.0173575256534837,-0.0095105248740325,-0.0180720585576123
481,4810,-0.01142218877408,-0.0075085451355447,-0.0209744087706162,-0.0196773644387037,0.072797201581497,-0.0435748787266623,9.666785622348767,-0.0351848612104774,-0.0021756453820319,0.0044687315541524
482,4820,-0.0117135399714327,-0.0089201130786101,-0.0210146736667669,-0.0061753362945068,0.0514821342643431,-0.0687000834689522,9.707680137810929,0.0117665379696729,-0.0131359795182547,0.0038493184479552
483,4830,-0.0310413777264563,-0.0194498931060732,-0.0096752970723105,-0.0222064562910937,-0.0028788679193801,-0.1568930877726973,9.589248746246255,0.0064658951269215,-0.0084738679378571,0.0038769656673141
484,4840,-0.0307981233176941,-0.0078896255662516,-0.0091647493040172,0.0053962720677394,-0.1041967734061274,-0.033597871172267,9.77219707290829,0.0046679368345945,0.0041587667931415,-0.0112219161929812
485,4850,-0.0022427945152221,-0.0254846092309047,-0.0202465578347321,0.0026411229633113,0.0250728119380928,-0.1292850974436654,9.726871873273955,-0.0159251804052154,0.0061303852883756,-0.0175197670295047
486,4860,-0.0173937754752984,0.004153388680646,-0.0107658159572503,0.0006622999169261,-0.0618550001355561,0.1278712267329838,9.83933723091632,-0.0153432850312746,-0.0173564093978758,-0.0371936005595762
487,4870,-0.0112640188232937,-0.0089516767789401,-0.0261776310052028,0.0079037506683465,0.0636034514590272,0.000994658866522,9.575062115221588,0.0119780062107318,0.0146393766162605,-0.0116156067582926
488,4880,-0.0106172472116254,-0.0056356475128247,-0.0034207826345851,-0.0024928546258054,-0.1321178112016633,-0.1352416703921808,10.000126892303571,0.0013291413442917,-0.003273081835729,-0.012300193383897
489,4890,0.0109886744197637,0.0038063410376035,0.0226204586122202,-0.0017210785816003,-0.0403127032339468,-0.1177322675791903,10.115973113534553,-0.025838169882605,0.0135744749863069,-0.0184007685591782
490,4900,-0.0105949782869187,-0.0208651123714655,-0.0115099209744401,0.00973324838159,-0.0226588446074003,0.0446865391135506,9.855075890763958,-0.0059061380505138,-0.0122950691380024,0.0003127277165264
491,4910,-0.0073187168256484,-0.0078610728145058,-0.0161358627114567,-0.0193683515855845,-0.2734771116062908,-0.0822439632794999,9.720903684039234,0.0231616682377396,-0.0001417104104326,-0.0205716108504728
492,4920,-0.0035899644282625,0.0153399087458363,-0.0273223221191381,-0.0049304785988252,-0.1300882239272152,0.0322304679282803,9.900190566325742,-0.0013226622117164,0.0078416583771879,0.0254894209274561
493,4930,0.0001623986841539,0.0059788460975642,0.0270894050951121,0.012623358305519,-0.0447006142437714,-0.0670206522040125,9.70371978411039,-0.0050974113621516,0.0045839736809427,-0.0022206106254462
494,4940,-0.0005046873631159,-0.0019088673501664,0.0011330830273809,-0.0117313449243417,-0.0351432234525183,-0.0409972518647536,9.574580610790235,0.0085291547890238,0.0115269351940514,0.0059584398862697
495,4950,0.0101655541242784,0.0062465270802235,0.0155940416580496,-0.0016142509678689,-0.108533905202132,-0.1716314302671918,9.508778625985128,0.000441055586069,0.0014195480722555,0.0288225483885743
496,4960,0.010138447052435,0.0093489730445043,0.0195451033149811,0.0178095972334619,-0.0295245660305436,-0.0508468463879439,9.869838780958757,-0.0121049284830959,-0.0006012328387721,0.0035994402999838
497,4970,0.0277699052697909,0.0155070163748287,0.0021251690760253,0.028617464621765,0.0282872777177391,-0.0422409489934952,9.654081820984734,0.0041937444701312,0.009403372963297,0.0190591457111734
498,4980,0.0257224009532389,0.028206981493622,0.022270190352402,0.0277089799578891,0.0477044803811635,0.023477510527909,10.160850182748057,0.0137612887056664,0.0076081794983195,0.0310415938958001
499,4990,-0.0027980886366315,0.0088190075663746,0.0226577719065431,0.0102340200098317,0.1426287133589278,0.2000725688910982,9.924593074229346,-0.0216030093006942,-0.0018579394185863,0.0216186608438706
500,5000,0.0276396421836236,0.0083854379782906,0.0220569635743658,0.0386251485299359,-0.0860420425104629,-0.079425396262015,9.792474580378084,-0.0076879264851278,0.0115935156783446,-0.0071283182442899
501,5010,0.0206430765435967,0.0142236044628591,0.0083599567575657,0.0133228697869627,-0.0824323406716471,0.0481314362896034,9.948927640947764,-0.0037179046456781,0.0098560356120125,-0.0081213324504647
502,5020,0.0274604363878967,0.0058172219572075,-0.003658734626003,0.0058764763101084,-0.1399976922714161,0.0851868441967082,9.799643888522192,0.005228920085654,-0.0191558179517604,0.0057474092951911
503,5030,0.0230499641089868,0.0207247813701329,0.0317490434906894,0.0208795827836307,-0.0482423127490319,0.0719814519072393,10.067330965077362,0.0132427497777003,-0.0007660912792019,0.0307809968434915
504,5040,0.0285058967621029,0.0245531881894611,0.0214915205233534,0.024326222691988,0.0501435738766592,0.0859804168789781,9.754224518591736,0.0366227529984611,-0.0010261368391719,0.0288504173934179
505,5050,0.0261037157400266,0.0226364877815134,0.0229813215661733,0.0070773934077755,-0.1181816796620833,0.0245397084620871,10.045626413122848,-0.0038929772025822,0.0191709045579033,-0.0067565885179113
506,5060,0.0515333473211887,0.0349979244085242,0.020033196600734,0.0230546479677718,0.1351709034198806,0.1248450002472346,9.912363643584206,0.034821239989862,0.0014812462872087,-0.0115664802100512
507,5070,0.0124697761813441,0.0127454053899741,0.0319709687427088,0.0262472725289797,-0.0560758247187636,-0.0751048774663279,9.863145311240311,0.0330423802203233,0.018077900033955,-0.0107044306538681
508,5080,0.0123070952454183,0.0072817719624618,0.0081006612524578,0.0085036444011587,0.0621367921199871,0.0941822825045171,9.885682413660676,0.05270219342119,0.021350546617261,0.0094680504660734
509,5090,0.0297002494501726,0.0011186912240368,0.0202280834771636,0.0091839314295662,0.0854669679772704,-0.0034579958957125,10.46744940185251,0.04276956235005,-0.0027519930003987,0.0187975148920887
510,5100,0.0111740160484233,-0.0029822503301669,0.0163676766045599,0.022530781061833,-0.0004630492528489,0.0043449683000784,9.71896289658782,0.0160693352602138,-8.043647832421674e-05,0.0506920315407958
511,5110,0.0112924813206424,-0.0039587757044273,-0.0028929147768705,0.0074928361182889,0.0172310334353267,0.019488781242022,9.93900795986958,0.0153764266827532,0.0133140278085607,0.0377434866531698
512,5120,0.0286348650793019,0.0077267963704522,0.0175858345826885,0.0123454176130971,-0.0987481592779513,0.0629448484495354,10.02864337971371,0.0278399040765274,0.0064352923409513,-0.0149957464369613
513,5130,0.0217000099086152,-0.0149875432740753,-0.0029298968275551,0.0199579587625674,0.0680073051926044,-0.1007269482824196,9.812303840730872,0.0547511859156087,0.01240250158098,0.0115498135624608
514,5140,0.0172875858082061,-0.0066260127140566,0.0125775535195377,0.0142945794567335,0.18696774807767,0.0491766389571511,9.780180840892298,0.0445368334258789,0.0276529086950389,0.0141542387093196
515,5150,0.0096133151560185,-0.0122201635089361,0.0124351594656999,-0.0067410876802817,-0.0044270120303928,0.0492012808745319,10.019199276264407,-0.0023536464519413,0.0085553811640191,0.0096992017516783
516,5160,0.0160165489891261,0.0073246937405679,0.002034913983344,-0.0094708837470973,0.0589339504540862,0.07980966983144,9.899104896490831,0.0407852411191303,0.018206154742984,0.0068111593780483
517,5170,0.0199680782780501,0.0098745179953108,0.0077321602706236,7.931873655616772e-05,0.0754406431212594,0.0338730187178567,10.244364693157262,0.0228841439009576,0.0337461003964875,0.0244596320746822
518,5180,0.0087158750336137,-0.0147201684998694,-0.0082944048366311,0.0035264337863865,0.057834127507643,0.0400743443951995,9.656474906205078,0.0206949216928509,0.0244805205846965,0.002911195426027
519,5190,0.010153674310786,-0.0015238418361065,-0.0037551965511147,0.0131520839892183,0.3348872427566401,0.1418919341488014,9.757344507181749,0.0233194172007482,0.0031715277281381,0.0333160383501634
520,5200,0.0205028587220977,-0.0032489879439567,0.0264633305752694,0.0079364711756014,0.0135752167623378,0.0922590182261007,9.761792319349338,0.0167487641360431,0.0171411275932661,0.0271394982762584
521,5210,0.0271177945576976,0.0136216222570719,0.0226796746094753,-0.0048731953971263,-0.0394819164807212,0.0776051395384806,10.355792902351222,0.0726642004190214,0.0108035672878572,0.0268371617882031
522,5220,0.0226451143590557,0.0068449455237523,0.0260550261883284,0.0207187989448944,-0.0219788588708791,0.1893922948072483,10.09949219451834,0.0496245818494207,0.0109945503762032,0.0462144600284445
523,5230,0.0055478779576921,-0.0161514019379587,0.0027135186001204,-0.0098256997671486,0.0982935854560283,0.043802363551691,10.394527728996556,0.0271213039146372,0.0054287354253738,0.0601467422011807
524,5240,0.0163160604784653,0.0014689379400268,-0.0022309522366981,-0.0130342658973221,0.1329076851177438,0.1139118286206147,9.294198437910287,0.0431429835103605,0.0103943114914783,0.0292532263120421
525,5250,0.0030330160403845,-0.0048226963924681,0.0119944643120729,-0.0217840499483789,0.100209822464954,0.1466552444115119,10.68752999519867,0.0052328532595204,0.0124871117664873,0.02304055335101
526,5260,0.0233601041773825,-0.0028703521716828,0.0130193076132907,0.0118928647555025,0.1214510162642676,0.1137053452687656,10.175002256189142,0.0546425593340049,0.0061587510326267,0.02933652116658
527,5270,0.0205384375096546,0.0043331109782913,0.0311316390999091,-0.0063831289211276,0.1706479762665407,0.0684129169465628,10.2194204273634,0.0576241305414892,0.0199089146392119,0.0153697601996633
528,5280,0.0324793243250743,0.0056002486836944,0.0162061723473295,-0.0177255476509194,0.0005526825314905,0.0917044545402325,10.310004162613222,0.0528717228544532,0.0273306160102843,0.0308878790722761
529,5290,0.0020717146270254,-0.0203702717230548,0.0039537291395958,-0.0029508833267212,0.2168280511863634,0.1159676630575557,10.312045879607869,0.0177345749761698,0.0137716058199863,0.0273039291429143
530,5300,0.0136267755391935,0.00689368614711,0.0084462159015019,0.0211828873610863,0.0467298200515818,0.2086720482677747,9.998149055876771,0.0605205739246163,0.0037276474037927,0.050863181907458
531,5310,0.0493384814315249,0.0090311370700194,0.024681515705169,0.0095237988217198,0.3159725359289722,0.086298244032924,9.762528717003637,0.0516488650732846,0.0359662572740707,0.0130220384639824
532,5320,0.0310737201403623,0.0039178211471314,0.017261497873318,-0.0038141977961358,0.2252564416408826,0.1874615955085718,9.720287869316188,0.0492723465713293,0.0086582089088902,0.0731457118674314
533,5330,0.0259837535131758,-0.0151107822547708,-0.0009216591397769,-0.0073886442762914,0.2071460965546488,0.1241028196139482,10.368324892456313,0.0308729619606184,0.0068042407834456,0.0105335394904706
534,5340,0.0439810065701702,0.0129895583494203,0.007102108478249,0.0076814416194733,-0.2119979825078377,0.3334174541307531,9.942540300007884,0.0316895915284618,0.0155331792183581,0.053718856880866
535,5350,0.0272313526184632,0.0111278247451561,0.0395272010884867,0.0146840682500148,0.2155871700482519,0.0824804771236409,10.041984646038038,0.0653209594396339,0.0238681020570905,0.0039522794893307
536,5360,0.0307835958580331,0.017582544009276,0.0239982818962983,0.0068603849944548,0.1710820247012151,0.1660073919891234,10.280851275692797,0.0731357290699273,0.0127455713695591,0.0402195722760892
537,5370,0.0279052094597406,0.0020743186074746,0.0195173029388533,0.0212900467942258,0.0467434566961794,0.1549332248625507,9.722754133777354,0.0585611575432758,0.0081459907024249,0.0480944026805396
538,5380,0.0375890487317539,0.0168285733908733,0.0182844487733391,0.0080598169362564,0.1435700428741863,0.0465536642219444,10.125788103549288,0.0224598154841051,0.0207942025508709,0.0873624998874863
539,5390,0.0430102436817262,-0.0082603185290533,0.038722079900678,0.0032377114183701,0.2798676346088252,0.1098481309605902,10.162850423505494,0.0371643105994458,0.0138460749730817,0.0721474540687706
540,5400,0.0383157779575919,0.019885713396125,0.0368653843344027,0.0125163770279567,0.016095568435362,0.0949652203549269,10.238489723560056,0.0801531461534517,0.0170544067986511,0.0481666782682469
541,5410,0.0547007684883539,0.0190819555006513,0.0347770616050761,0.0345969327749299,0.1133997967441049,0.0173998912419959,10.023314588874584,0.0489714580999412,0.0267297797292112,0.0511331770999632
542,5420,0.01618483463236,0.0175189114734488,0.0461895938351652,0.0232483704404396,0.2367099299769436,0.2139628668097589,10.036124705238455,0.0516166584191042,0.0261468428253564,0.0111830654664412
543,5430,0.0335902759081771,0.011295630206802,0.0362598166670379,0.0314212632338754,0.1814690546991355,0.1024036624416062,10.399499003559034,0.0437129803824431,0.040531141299784,0.0761706312188517
544,5440,0.0430164309746918,0.0053768644999953,0.0186514028766224,0.0226778635972414,0.1691157874185647,0.1120458078052096,9.980970394137731,0.0505080938311422,0.0261179607751461,0.0302318646930024
545,5450,0.0265661750458963,-0.001468478062872,0.040485264696248,0.0155186196073907,0.061587058133456,0.2902473636629625,10.822590867361836,0.0726343600338664,0.015312585287163,0.0492161037289855
546,5460,0.0297468070449706,0.0192286297509542,0.0425902853852325,0.0163322078188233,0.1142561698739814,0.1360178388942085,9.9364474796514,0.0488454110503691,0.0260565464010261,0.0426408237951653
547,5470,0.0368191820442912,0.0130732483234737,0.0344512805167505,0.015758035623362,0.2494568887920278,0.0926155841201473,10.239575383581766,0.085411497088638,0.0289339139737052,0.0138172738408671
548,5480,0.0438318618282025,0.0117820689738519,0.0326060737746074,0.0021511873957352,0.2499946752236847,0.1575584211088932,10.084481608504174,0.0458941822692006,0.0427650747603382,0.028979128245897
549,5490,0.0498094838846322,0.010299037033542,0.0509550856550851,0.0194612882703964,0.2826745763817955,0.1490087965165176,10.041837227574009,0.0680533601114975,0.0169957195097179,0.0484232967075677
550,5500,0.0508231637843164,0.0165788145920706,0.0255367035259044,0.007631784203891,0.1599201451583185,0.1015576590475482,10.203605824482343,0.0334294827580073,0.0368264081270367,0.0197278934146795
551,5510,0.0335988946423593,0.0065545639470504,0.0568839532378613,0.019062801622027,0.2260279990441777,0.0742211680820515,10.264215091717922,0.0772720016098299,0.0295233388769921,0.0190849027963788
552,5520,0.0494867990048972,0.0055384079523832,0.0378399266773058,0.0276155056907288,0.1410229288654858,0.2404155911412523,10.466267540217933,0.0788522306485052,0.0304888109915721,0.0428139962056706
553,5530,0.0417281688651638,-0.0032886789739756,0.0534484546467216,0.0209047424633318,0.1601148852060499,0.2154858428683707,10.214462152889611,0.0533986166363197,0.0089150465576596,0.0098792908729984
554,5540,0.0336660323646254,0.0134133945030973,0.0360856020828546,0.018702151254667,0.1474462777463714,0.0862330474655396,10.324795401288972,0.0477643614771996,0.0321737729574273,0.0448967534082679
555,5550,0.0319138734259167,0.0080096720551458,0.0350559720732767,0.0141186892652428,0.0904314932857846,0.0777830577138509,10.356905750939257,0.0928358988706685,0.0199161603938382,0.0634680548217947
556,5560,0.0724488943750383,-0.0002948449004363,0.0648082295478848,0.0264764038813543,0.3137573675563792,0.2203193120617163,10.103464377607288,0.1031734092000166,0.0280040767596765,0.0535790235965773
557,5570,0.0507245404724679,-0.0016868937309238,0.0395382371585303,0.0100315136545227,0.0232862747996804,0.2970442125813199,9.913023821752748,0.0767866326323794,0.0318697491312026,0.0473879402184574
558,5580,0.0504661475398599,0.0259451452540549,0.0452281157628686,0.0256224129849896,0.249634675607637,0.1226140023892397,10.234761449221638,0.0890216924373716,0.0506874478818169,0.0431445661225462
559,5590,0.0220474225259904,0.0097894462082634,0.0373043207178095,0.0235670409818686,-0.0096492502552898,0.0907201449176132,10.073362101413313,0.112878974368097,0.0356639319466073,0.0310390293429567
560,5600,0.0473808637028134,0.0025090319076153,0.020206621754359,0.016619892008911,-0.0324064962060665,0.2375202954946167,10.19562986813685,0.0878424265706199,0.0198311862981949,0.0614346640743499
561,5610,0.0288095976711181,0.0071822791521885,0.0361537807890932,0.0095555682954988,0.1403257672921114,0.1719273062418847,10.30673988195848,0.0998601458623301,0.0137988133332187,0.0195896410502672
562,5620,0.0235340899792411,0.0058723661445358,0.0304112850175663,0.0090754535132705,0.0194035595950229,0.1467664507772831,10.077839219441907,0.0979610787622596,0.0495169652314759,0.0498710763849571
563,5630,0.0258774654961515,-0.0252037214691626,0.0231652128039663,0.008944252993519,0.0844748304819211,0.0967286341661277,10.230076452853574,0.081625592121081,0.0286175123910927,0.0541762093160843
564,5640,0.0419690708436971,-0.0114486621366055,0.0348048119824702,0.0072070667160154,0.1742575537057683,0.1919051367061484,10.492105973247858,0.0662515103242352,0.0376902243530029,0.052831773420166
565,5650,0.0142025867248862,0.0004340265816233,0.0065783795119367,-0.0132638822891671,0.2659389720219081,0.1185172431491413,10.344659971212698,0.0825278522376363,0.0445565682335824,0.0877945594600526
566,5660,0.0468950838115067,-0.0124550011383189,0.00210289462104,-0.0009186725779153,0.1808164076955698,0.283094037560811,10.025731660394705,0.0914084151441689,0.0273872232712357,0.0582856023867688
567,5670,0.0236285537704223,-0.0250188294763711,0.0234827932289403,0.0004521764145725,0.3423946350337447,0.1649886444009744,10.236691981730145,0.0855976463875421,0.0240189327618461,0.0375743420762602
568,5680,0.0267432647991839,-0.0152032873517467,0.0236447862437525,-0.006415549777948,0.101923178025169,0.1768173479314973,10.030202633238378,0.0663079929806865,0.0315862452609759,0.072957246083448
569,5690,0.0006529498844654,-0.0257292897012247,0.0165023839842865,-0.0147448444482754,0.2528838838525705,0.1588085229360561,9.994771851796742,0.1107343743343995,0.0290967259537557,0.0476353243859838
570,5700,0.0353325228941876,-0.0077222816588155,0.0074265779702103,-0.0064837648243702,0.1693260022275193,0.325184550312134,9.76657771412522,0.0320924639767804,0.0366084171795384,0.0542539162177198
571,5710,0.0262593765048504,-0.0448462621723383,0.0140297952159796,-0.0321173740552053,0.1673904709322411,0.2946924067389324,10.45152554126586,0.101137692554244,0.0341674797194865,0.0497862515526122
572,5720,0.0195424744560826,-0.0324905445050352,0.0065925560869958,-0.0081372890223823,0.1730982108433323,0.1230507059334127,10.62704682755028,0.1074022792515606,0.0401030285003713,0.0555550321842037
573,5730,0.0201457926609181,-0.0296301401333088,0.0073135247298407,-0.0154852833706469,0.0564224309432982,0.2967745498392792,10.284447502980694,0.0722364126121657,0.0465668979804876,0.0522680392988836
574,5740,0.0411671829653894,-0.0164560614312003,0.0046868306540183,-0.0023038371790914,0.2232986914725696,0.2765129205655373,9.970932868913389,0.0721978589265286,0.0299618259479387,0.0359963447798392
575,5750,0.0113469885118385,-0.0258271289086793,0.0005773446217027,-0.0256478953680929,0.1250989323501095,0.0954484409892752,10.02090043329579,0.0704461059493696,0.0339499612037597,0.0641059537793117
576,5760,0.0135230487625106,-0.0348853626633898,0.0224884247835922,-0.0281138789861326,0.2194843903837343,0.2868937316591998,10.041672238894838,0.0740368405371186,0.0485525355440203,0.0258537722798805
577,5770,0.022578542817524,-0.0206765593494449,0.0214286003520756,-0.0058501092181745,0.3190027022622616,0.2335606885885393,9.954031440561687,0.0978045414174461,0.0246952204154042,0.0702960418113691
578,5780,0.0349271173878505,-0.0160560164925885,0.0048776815589078,-0.031319752424202,0.2036485101548231,0.2663493352592296,10.473200348757478,0.0324937738245365,0.0257510030232489,0.0376982144908581
579,5790,0.0185399181824578,-0.0262288661901734,-0.0082007174188361,-0.015125349447263,0.3863675017426739,0.2108747621197725,10.24970229509838,0.1005111157427809,0.0486990120199965,0.0418657920664365
580,5800,0.0235322565581022,-0.038831362395732,0.0153634445364234,-0.0213313914131727,0.041507270401978,0.2029470290607301,10.542836447255524,0.1020751558088615,0.0248168315209634,0.0453512154827407
581,5810,0.0200698804909382,-0.0199317939693173,0.0104408131391757,-0.0265951086600564,0.2253460826936175,0.2148355348235245,10.1768280595725,0.0918624754452371,0.0581885823847911,0.1156904320085747
582,5820,0.0245434592949157,-0.0339588760017967,0.0158295461378314,-0.0265784613035798,0.1444948694052388,0.3501300670566128,10.31413052563572,0.0680857753163498,0.0443041176671856,0.0365591096095231
583,5830,0.0289843909343109,-0.0184061859821979,0.0305449483237408,-0.0243985232082693,0.2782503670257581,0.2377130679484177,9.930867065962357,0.0853253415055557,0.0321503533609186,0.0202517099982146
584,5840,0.0417445615397077,-0.0414549922363465,0.0109549095636403,-0.0307640499995549,0.0851949216216556,0.2533131583279827,10.263027599636986,0.0955223612730436,0.0347406577128581,0.0758604627914829
585,5850,0.0442076395226494,-0.0431791696754953,0.0069056315638874,-0.0046521252020461,0.1713484945831498,0.2575168701929096,10.491847116415755,0.0600281206076388,0.0402169665753555,0.0346912796755564
586,5860,0.0092554836651543,-0.0279005761732203,0.0114075426667688,-0.021027004680711,0.2699345811636525,0.2711622065924704,10.30110934267739,0.1009816085615357,0.0348512076700259,0.0668908881646613
587,5870,0.0284628219027139,-0.0328413946464993,0.0072998918383987,-0.0143880500168114,0.1838548329688628,0.1940920243306227,10.267448072189651,0.0897392837075309,0.0327929464938479,0.0547711151342783
588,5880,0.0236611885150327,-0.0248867286870309,-0.001877564342701,-0.0340397115572998,0.2905308455556459,0.2325286726464841,10.643093560267028,0.097214556878986,0.0397223986424554,0.0627791755351745
589,5890,0.0198403414029336,-0.0153860148062972,0.0205597574250523,-0.0095865961896217,0.1694196629718493,0.2301477367404204,10.34918998793436,0.0875936763409145,0.055476408925626,0.0696622361334301
