index,elapse_time,susp_fl,susp_fr,susp_rl,susp_rr,acc_x,acc_y,acc_z,rot_x,rot_y,rot_z
0,0,0.0103278283452606,-0.0007053140447846,0.0042926237228939,0.0050907784517435,0.1089969108491597,0.0094955120713589,10.005357150153792,0.0311564155092979,-0.0040629595849419,0.0246449584921048
1,10,0.0034149494070222,0.0016679717884029,-0.0057962980620357,-0.0052052708124949,-0.2579199441037766,0.1073783030672271,9.835238509377165,0.0488778242403395,-0.0075817789379422,0.0593761080375588
2,20,0.0135117506411337,0.0155649214582568,0.0058922738969522,0.0093231470151085,-0.0942333587248971,0.1067817203662088,10.08546497911983,0.0303013670199906,-0.0046915638453076,0.0246577314278175
3,30,-0.0047351744546779,0.0009060884852956,0.0179970613309572,0.0241274966023712,-0.1242132171024992,-0.0464463157285921,9.6775204136099,0.0045794406777665,-0.030886686876972,0.0357072025154853
4,40,0.0100901398764706,0.0249577742275939,0.0209147351096872,-0.0087952241796917,-0.422666318010079,0.1141764424968521,10.1354663135998,0.0221026897351673,-0.0002861879008972,-0.0169698347704012
5,50,0.0246866407295759,-0.0041716994185291,0.0371355945424045,0.0398363646305797,-0.1484628638244904,0.2340847486133554,9.54948273255422,0.0414293948619585,-0.0129905991031847,0.0095338820563234
6,60,0.0175397606854398,-0.0099728610242599,0.0103113060479751,0.0255186304665915,-0.2034101477149709,0.206773595670141,9.838798320952504,0.0743779157733054,-0.0053999680775449,0.0119604576186239
7,70,-0.0039529560512126,-0.0119830858150367,0.0115755617320983,0.0011463592787688,-0.2606353688704328,-0.0407450960493094,9.566750400354932,0.0286064638799223,-0.0099595167981525,0.019606484544785
8,80,0.004758078651252,-0.0125089444735743,0.0024968610815244,0.0110799151928315,0.0284725189340226,0.0609302758731663,9.820528650712468,0.0532263664686775,-0.016625920617706,0.0344650342379617
9,90,-0.0022697863292793,-0.0032140915013343,-0.0065019881385413,0.0031827166869263,-0.0156596300773711,0.1134079796734534,9.629283873757444,0.0625074680941792,-0.0152698995267264,0.0128306153446304
10,100,0.0374674654802762,0.0096229933660411,0.0069565158834558,-0.0058565880942369,-0.0035794045303634,0.1643007948337951,9.947279442327243,0.040689202740198,-0.0284852730601367,0.0366229512487841
11,110,-0.0001704043856911,-0.0060276870559024,0.0334392795799825,0.008244608062382,0.1373973849041187,0.0885799673529251,9.9548956225117,0.1095197327242462,-0.0041300313325858,-0.0582554876418895
12,120,0.023320149633958,0.0221365789556771,0.0186250449391572,0.0096052545233535,-0.0870188398121247,0.1326473753446863,9.879064500768802,0.0441461191971093,-0.0227268212654273,-0.0158977647329957
13,130,0.0336864920882458,-0.0035364807103113,0.0065684352660299,-0.0049330792294486,-0.0568767431922787,0.1948459815095941,9.992978843106936,0.0450944412206957,0.0078072267682317,0.0292573175393757
14,140,0.0246399416821772,-0.0045283070078953,0.0373514321296636,-0.0116679251347012,-0.1477975511329473,0.3150278705773014,9.897004775852327,0.0297831577467957,-0.0223510414189101,0.0400083453613916
15,150,0.0306960138353865,0.0239879939441964,0.0384817928233322,0.0177483095676837,-0.3165667294771588,0.1164699244868314,9.887992140180335,0.0626935449449264,-0.0161639294571835,0.004799807570656
16,160,0.0171356639657239,-0.0229454346179344,0.0156773243305643,0.0048875326964509,-0.1858535718229031,0.2056538076461844,10.111892881730256,0.0526815418136554,-0.0201317465026673,0.0239538483338567
17,170,-0.0027011873731115,0.0025156995536342,0.0344928599072811,-0.0117258043833476,-0.181583662125501,0.0102860813859499,9.851699250714448,0.0570736899204604,-0.0267271429139363,0.0552598047665385
18,180,0.0330963772283082,0.0114162166727929,0.0232727398424533,0.006855573339555,-0.0644955470804213,0.1844471778685242,10.040141715330847,0.0607958539857383,-0.0051349506291401,0.0591156177677163
19,190,0.0163238750338523,0.0079307089776916,0.0167128785148466,-0.0030074431254128,-0.1689285778197246,0.2860750475185312,10.226806211989418,0.0619346577999046,-0.0210870727352537,0.0256899321112207
20,200,0.0315544659781316,0.0121606169955347,0.0213090468304127,0.0075676502399857,-0.1057712590396197,0.0109679482306554,9.964903768325357,0.0642726609538426,-0.0319552402708083,0.0576099346556095
21,210,0.0187740601469398,0.0090650222946471,0.0234917524430317,0.0128808289428984,-0.0478712284615173,0.0482132861341158,10.08095013333439,0.0817329617298989,-0.0067571594737546,0.0424759355371527
22,220,0.035668454335589,-0.0020987273274802,0.0298736810010366,0.0029749948730791,-0.2558209023732247,0.1182014733022952,10.078703218239225,0.0291922611241871,-0.0159751200467913,0.0815508528555359
23,230,0.0468189098335403,-0.003193838470177,0.0420468746775983,0.0233554925261518,-0.1226750206920317,0.3407450139435739,10.013410084230966,0.0275696004464891,-0.0216435288047089,0.0321245294083439
24,240,0.0365793517246731,0.0286772945958557,0.0224479620943439,0.0094680618124111,-0.1370333726194656,0.0413089721144796,9.976668109617744,0.0687795854704601,-0.0158890033365046,0.0852943156301802
25,250,0.0513405347031272,-0.0019596072247346,0.0484639643162439,0.0238251945269904,-0.0239002181246884,0.0458824658984338,10.440867602745442,0.057631798182473,-0.0139871511110807,0.0605725397817446
26,260,0.033764402664542,0.0216754036554293,0.0430257308349251,0.007484069051344,-0.203786193857894,0.0861184456080967,10.163653373880235,0.0554834640303514,-0.0317776503731849,0.0880698206065348
27,270,0.0501758026285803,0.0319971800125383,0.0185893311425836,0.0394205103967843,-0.1465505724891708,0.2656662538777899,10.17795748422414,0.0234068539910996,-0.0124899609728925,0.1247738136986222
28,280,0.0517675700352709,0.0175851160598852,0.0332977668446784,0.036586664330373,-0.0816166828478642,0.0070088596163221,10.432120564958424,0.0631640481962102,-0.001889991655131,0.0497114870324997
29,290,0.0316413426328118,0.0234461731007839,0.0219106940400858,0.0284842596337271,-0.3643297769965339,0.3428452964481817,10.1918807477891,0.0787084883713788,-0.0211534710648018,0.0135260162996119
30,300,0.0461639747370133,0.0307112166628438,0.0454868812767803,0.0293113215592252,-0.1174700597965258,0.019403285674922,10.147773025559628,0.047339902427927,-0.0199847125192627,0.0152686139510912
31,310,0.0400309020035601,0.0220696159260973,0.0516002491770732,0.0501419526309043,-0.2302250862174387,0.2084315678292638,10.448136561095705,0.0610178524602251,-0.0319883771610239,0.1009285831140345
32,320,0.0589051616839015,0.0092513263731009,0.0450697205815084,0.0246421929623527,-0.1347207155307629,0.1103791734627974,10.010368292681797,0.0690632593128116,-0.0261914390698536,0.0718253193947086
33,330,0.0533237550611095,0.0197662114070752,0.0461060942952235,0.0398715073525287,-0.1537497105877446,0.2396455266653176,10.16682238958704,0.0559775451930013,-0.0441638482326429,0.0209126675378078
34,340,0.0355368914866048,0.0240403307247265,0.0592039309442769,0.0311292517000455,-0.1889247700623869,0.1138655202883381,9.784470763794042,0.0782342422236194,-0.0354529171068614,0.0623874996141642
35,350,0.0298569889742408,-0.000593665758292,0.0421644974831675,0.005261350074865,-0.0220216390238277,0.2242892567979192,10.093042769123311,0.0864859579860541,-0.039318938064095,0.0874162720831004
36,360,0.0516355910571896,0.0035410361034428,0.0514271784676183,0.0286024021732662,-0.1458466934026843,0.1822584831425362,10.010130271005316,0.0712016063310304,-0.0274310941615774,0.0880329414055409
37,370,0.0158407297763027,0.0209116885497301,0.0319454128116062,0.0217909194987012,-0.0467402411538948,0.3530078462065629,9.889668681341243,0.1032369966115909,-0.0471592356206678,0.0422912602227598
38,380,0.0395556311859184,0.0102160868487619,0.0620018191354145,0.017056130613912,-0.0393666509032852,0.2067208403241389,10.42608921791348,0.0658227356948346,-0.0266337257916324,0.1012893403726963
39,390,0.0408905642422137,-0.0038706364467883,0.0277703507186026,0.0099501280877117,-0.1586240527883712,0.25401971597538,10.237659102075977,0.0732180795857024,-0.0198926946082151,0.0332100625927538
40,400,0.0335738644730919,0.002545622822888,0.0394668096214207,0.0254027687741657,-0.3620602009540754,0.1592416327556308,9.998603046242565,0.1301065551421119,-0.0276223908767683,0.0268939653567493
41,410,0.0343423831189204,0.0201003067400495,0.0216972017742956,0.0112508234440513,-0.2878463339381602,0.3178946158235544,9.950349645568105,0.1067491258656509,-0.0116635161809694,0.1159535243330996
42,420,0.0449159149379826,0.003065044663958,0.0111410843018643,0.0129258347410894,-0.2650766389126423,0.1946595327538671,10.433352062976631,0.0916496971330085,-0.039876930480693,0.0604327871611509
43,430,0.0259039105379914,0.026734896929922,0.0480499245290345,-0.0025515810449993,-0.2738409201366937,0.2530045001156397,10.267117448706502,0.0822341458607971,-0.0318758693080263,0.0725234186624477
44,440,0.0354240841074448,0.042953099828698,0.0446996404200259,0.0137061094334514,-0.251578569697003,0.1981475138685871,10.154917318599566,0.1157733795561019,-0.0176422745963981,0.0660996984438081
45,450,0.0489381326067449,0.0056433341166724,0.0609237887400576,0.0245569141678212,-0.2537787759214406,-0.0089538171573226,10.250471950648835,0.0945407935126837,-0.0400817384235615,0.108552314676639
46,460,0.0131387596130727,0.0087391254577463,0.0435530243877922,-0.0025775650755921,-0.2065222672541582,0.0186176283110967,10.393422488859514,0.103834115278394,-0.0365309195355121,0.0762989679674126
47,470,0.047822984988666,0.0250182457935531,0.0424435671828585,0.0147068388214486,-0.0293933418902314,0.2131073582460177,10.002920736679147,0.0997690230208674,-0.0277757466535055,0.0521078089749916
48,480,0.0347771762229445,0.0035565731422603,0.0140310040088671,-0.0068495956858894,-0.2446309308904067,0.3830155901899258,10.135029784163974,0.087791721102421,-0.0340052341010687,0.1183454121798468
49,490,0.0266115964375544,-0.0109956471776737,0.0217786591498397,-0.0037574946725946,-0.1615029466458535,0.254414188242185,10.220188609681532,0.0929367920327209,-0.0296028282121138,0.000718400641365
50,500,0.00645019410838,9.968621910952032e-05,0.0017090503478084,-0.0249599532101283,-0.3960853401386376,0.1451684921818276,10.318603533848076,0.0634984342977182,-0.0354319321572174,0.0060825975239279
51,510,0.016427470422162,-0.0105206303800039,0.0309166539955812,0.0114037899097117,-0.3576357041569373,0.3810045835629372,10.365803922919932,0.0839031552788074,-0.0049976528056725,0.0981624511899556
52,520,0.0149441760338188,-0.0369103069984614,0.0214997369193937,-0.0054311246588815,-0.1593334606550039,0.3044235587413508,9.896623957454077,0.0736242146603585,-0.0378929215622343,0.0507353155521463
53,530,0.0215628705760657,-0.0171726772158745,0.0008411240346218,-0.0157599386272699,-0.2725196917935217,0.2331088866824191,10.44018690543723,0.0747808564316703,-0.0300454566692148,0.046128121832263
54,540,0.0108895014503615,-0.0103902247387841,0.0294758980468383,-0.0060678087964389,-0.1171421118681008,0.0488874458971208,9.977017188905082,0.0838172133771647,-0.0299150850129623,0.1181627094301047
55,550,0.0319577012918775,-0.0071858578620192,0.0176682316135312,-0.0178645494483866,-0.0809249201549631,0.3004297737281863,10.160069691418084,0.0824700805885845,-0.0563093102865622,0.0661602321751287
56,560,0.0080535190209803,-0.0243865074288528,0.0211286771806802,-0.0082941003310174,-0.114130955626154,0.345780539293371,10.566194493029382,0.0660458358858702,-0.0290521520932817,0.0587319319072527
57,570,0.0129796558216329,-0.01853210302206,0.0133290120321093,-0.0352072696327468,-0.3076131659640033,0.2206629757301209,10.517096984367203,0.107398188607019,-0.0376005069071316,0.1048136651533479
58,580,0.0169035397179819,-0.0154810385889413,0.0154392702511037,0.0012654477799813,-0.317077983295828,0.2853774569669898,9.857197654204985,0.0558618654980899,-0.0507501311341306,0.0419991070932757
59,590,0.0124648377339984,-0.02182061512025,0.0119428176216127,-0.0319376771047413,-0.1600601780406905,0.3432099776035748,10.736545036977462,0.0721919698294834,-0.0235704449667896,0.0200229529548594
60,600,-0.0115301067115152,-0.0274295262899559,-0.0049193056958988,-0.0168548465583617,-0.1924895798673846,0.4466598912464298,10.260044171361,0.0968526024377145,-0.0359211912166911,0.0700459632367268
61,610,0.016890658818257,-0.0370026110035323,-0.006027892506818,-0.0106662416596665,-0.1679285017814008,0.2522259140845403,10.517351781576965,0.0770144086175109,-0.0331951032739374,0.0857238398020946
62,620,0.0204218311612004,-0.0172001150318079,0.0040570805753092,-0.004741040892178,-0.3984272216856797,0.4150003757938018,10.072357271984291,0.0980319998815629,-0.0367196875624767,0.0696535081962424
63,630,0.0335703516888555,-0.0251787394273791,0.0154307315571811,0.0008374711599319,-0.2919357508902073,0.1647748822909404,10.379619272895226,0.0783116039085712,-0.0324091764986771,0.0188789818765347
64,640,0.0132553401114248,-0.0207422293684771,0.0106816088369681,-0.0235869080919041,-0.2261962786256156,0.365007780693196,10.13120274655084,0.0692836959981941,-0.0227648912514869,0.0457432451956527
65,650,0.0060087477912681,-0.0242033670892438,0.0252806138823447,-0.0309935280044593,-0.2003538551229716,0.300916248959006,10.504063569465748,0.1044880550702951,-0.0327622648365042,0.1039496964765924
66,660,0.0265118373875354,0.0011213021366404,0.0101576788434867,-0.0153981083684435,-0.3467827789729149,0.010105820990512,10.022462085272393,0.1132089429115689,-0.0365160753092991,0.1321256065175787
67,670,0.0125203666104868,-0.0040114896262576,0.0249648534184282,0.0001226696554862,-0.1701535527042297,0.0645411318225777,10.195635433518223,0.074865921537794,-0.0418118845724489,0.0605333304739041
68,680,0.0103139585702896,-0.0052362955521882,0.0043303591405043,-0.0309895041432069,-0.1887359460842612,0.3311986271511284,10.54445264707776,0.0576673715377817,-0.0513350773890431,0.0969359349563721
69,690,0.0429038579747536,-0.02463606053122,0.0157519131403655,-0.0172137883668998,-0.1092909261474147,0.2298286726589415,10.169782188406112,0.1173811233282273,-0.0344374539765532,0.0668015116012273
70,700,0.019929083636795,-0.0145331398861909,0.0104109809143449,-0.0065369767849932,-0.2980483809227167,0.3875593019716854,10.311849936644604,0.0862620281673109,-0.0394978584398925,0.122801926143062
71,710,0.024280279592165,-0.0184790024877314,0.0195936882706017,-0.0057327284372158,-0.3918391789299384,0.3982579388001307,10.021880016888618,0.1143970944630329,-0.037317865371824,0.075434136589829
72,720,0.0114042260347225,-0.0251901627118923,0.0225059160363685,-0.0090164494883203,-0.1444815427834773,0.2183829471318184,10.299533896015944,0.094504736680143,-0.0491226820743777,0.0936214559912182
73,730,0.0017798093985613,-0.0096224536887573,0.0173076115123946,0.0032767670167476,-0.3811547021106048,0.3690645413603013,10.416541913681405,0.1359121882394225,-0.0370787645115462,0.1290665642875378
74,740,0.0260340926040063,-0.0281337384117456,0.0305444898457384,-0.0146256793240817,-0.124905360088092,0.2723829142155212,10.142288348769087,0.0553763744199663,-0.0472213442019602,0.0696796298674137
75,750,0.0191805114572977,-0.0117731635007008,0.0094971676986884,-0.0026265326848906,-0.4411501513021541,0.2940224095855296,10.028504663708784,0.0628725178652478,-0.0456768922586605,0.1092100373429489
76,760,0.0280735615127087,-0.0266186646852419,0.0216768611746487,-0.0266255039239275,-0.2785300707032884,0.1521578222605752,10.134497642459248,0.1259955760557641,-0.0416556492231611,0.0649442403227225
77,770,0.0109172196048756,-0.0396157742464846,0.0222980621162534,-0.0114404953010036,-0.4497902607573842,0.3888742646939847,10.486333853207729,0.0800974724570324,-0.0433681645485056,0.1070991333809062
78,780,0.0103579457850317,-0.0127656430237074,0.016722186843507,-0.0102032794561307,-0.229197240256788,0.4030766014957425,10.268228364751195,0.1308687786171426,-0.0672551946936987,0.0856001832603372
79,790,0.0128092394895701,-0.0118908842828674,0.0038781556761,-0.0349748448923156,-0.3885623932126716,0.3557234900352358,10.045387770666055,0.0945257509898672,-0.0322831507385827,0.0385393542607456
80,800,0.038600470967162,-0.0045987003898765,0.0066701135744799,-0.0133410006117685,-0.1709234182771818,0.305115546419465,10.621878458796706,0.1154961486260878,-0.040008455907249,0.0779704174796259
81,810,0.0180770363864541,-0.0269264015488397,0.0100576340882228,-0.0182512546467222,-0.4226896984320977,0.510009521006537,10.259191229133824,0.092250597847564,-0.050134369192831,0.0977812134641852
82,820,0.0179898649633121,-0.0141961296949645,0.0289254235157536,-0.0187645415472371,-0.2297020570543294,0.5489139072107212,10.227545220719437,0.1478587494923571,-0.0234056083316241,0.0781070432716812
83,830,0.0283429998546572,-0.0188875559611213,0.0215614799666853,0.004995692955932,-0.1165447897273932,0.5120361895627991,10.114428777945124,0.0708266887198142,-0.0411263806658302,0.0901498280397011
84,840,0.0315783970032986,-0.0181713861860097,0.0051446577950009,-0.0152015925829162,0.0896428556186503,0.18044834949944,10.41223925235299,0.0553532370212388,-0.0517673513794969,0.0955475439988295
85,850,0.0450584482855693,-0.0263000140585347,0.0133697691252513,-0.0191996961940832,-0.1999900761145513,0.2791165082864144,9.939312536320514,0.0990745654819692,-0.0623512040210911,0.1222714931982514
86,860,0.0262292768676947,-0.0178638048322308,0.0133000083059859,-0.0185085629070073,-0.3030790580479416,0.2518941091727057,9.794035837941562,0.0899942983186627,-0.0449670487818372,0.0989209827708572
87,870,0.0104404790863878,-0.0366365603304416,0.0160382806072423,0.0064610863090308,-0.2122491977970998,0.3482178600380414,9.895256387903324,0.0812560442333373,-0.0280796189125355,0.1058601878142624
88,880,0.0209386323525636,-0.0051139124363379,0.0110701114957225,-0.0042672455109978,-0.1292123170757454,0.2692529717995887,10.223325117417705,0.1086920972806265,-0.0586179502998383,0.0718717448202765
89,890,0.0102652692837575,-0.0262715041199587,0.0195514827442501,-0.0222457399846417,-0.2510443439876868,0.2904668661894999,10.374826476921816,0.0985036442764001,-0.0404831655131993,0.1509889051365712
90,900,0.0016175934543463,-0.0217713502301339,-0.0035347630783062,-0.0249768024951536,-0.3739372851312966,0.3708199858227008,10.047703632763636,0.1012542647959821,-0.0423787929645624,0.1190836787981575
91,910,0.0097626723092835,-0.0474570772674628,0.0167526764882899,-0.0266024847557936,-0.2354240963349698,0.3727896168961839,10.309158026237654,0.1268102573615693,-0.0492879305775468,0.1188932169352166
92,920,0.0111259490394969,-0.044746990121166,2.8016249507173885e-05,-0.0446748056559172,-0.3126540388487657,0.298414365717121,10.368297603933708,0.1146634401215814,-0.0369444004639554,0.0866478891484659
93,930,0.0163344479528178,-0.0148430283666024,0.0097130855225972,-0.0331385903493927,-0.256321716716361,0.2993599870875045,10.459913469111513,0.0775410781026084,-0.0380781145223125,0.1136126638578646
94,940,-0.0011890671277055,-0.0390446408045016,0.0208199280041622,-0.0384459391262863,-0.3960970235315219,0.3330898823570635,10.226269504565003,0.0723380608241367,-0.0498944567725536,0.1297219000179261
95,950,0.0089197194958751,-0.0595768036041161,0.0108410531584758,-0.029635771435418,-0.1075495218217824,0.438839390974742,10.949382199818611,0.0987395604623013,-0.0448707404122293,0.083028407818805
96,960,0.0150096485735987,-0.0238422583385373,0.0313594353106209,-0.0026960900862795,-0.148915173852644,0.3233729729034654,9.845541745364857,0.056861830859436,-0.0437859078112696,0.1020136756560659
97,970,0.0090081524537173,-0.0728753494022454,-0.0091675427567484,-0.0443573921781475,-0.1488637149759262,0.3766174303950957,10.338877551142255,0.0866664960367223,-0.0499063867104406,0.0573080298657125
98,980,-0.0129589347595767,-0.0477581891264209,-0.0085096829034826,-0.030894836538649,-0.5489082545553676,0.3396133115263799,10.289060293582718,0.1380578026635179,-0.041861512296263,0.1112693348018761
99,990,-0.0077375142170231,-0.0613598180285922,0.0129079946531711,-0.0453448817818242,-0.2451824059247409,0.423916165823001,10.243611879843206,0.1009169811104418,-0.0509721288513924,0.1228194546858345
100,1000,0.0021498891048934,-0.0388312896111227,0.0108957627404729,-0.0319251664245233,-0.1571123448958703,0.4383771717963812,10.048283475110232,0.0810958324368628,-0.0332670236680537,0.0733291089886596
101,1010,0.0056800508564597,-0.0448078344885129,-0.0062881555179233,-0.0444057893311189,-0.382613462865454,0.4714676628493332,10.117381059425504,0.1341128583604305,-0.0425790669219146,0.1198739916147971
102,1020,-0.0278148301566049,-0.0424983665664187,-0.022702948549158,-0.0669548709131573,-0.2924284137383781,0.3313678636566632,10.426116998098314,0.0683479708018774,-0.0579284075807882,0.1250174893296441
103,1030,-0.005624095188103,-0.0524847298753038,0.0013519890944348,-0.0403025543039255,-0.2184440763196934,0.2887259518195951,10.246992327608858,0.1013810596232308,-0.0475720566322825,0.1341500537907012
104,1040,0.0251668076076033,-0.046575970077826,0.0118528500555988,-0.0397284313144184,-0.2689821973019863,0.2974333340305505,10.5740487486867,0.1294101892288447,-0.0538335778076172,0.112443632196083
105,1050,0.003749240496042,-0.0509225912563506,0.012136203943106,-0.0511518572638604,-0.1830691723658185,0.4502380848348214,10.23427657520773,0.1415408798933038,-0.0275496919998611,0.1032477277730686
106,1060,-0.0134602254374255,-0.0487488250898372,-0.0076643160148489,-0.0584363288747704,-0.4156460296127028,0.4039309731660312,10.769790823903966,0.1065218553613845,-0.0581456804178699,0.1105325946847404
107,1070,0.0092099157107018,-0.0383710463517909,-0.0129071203782515,-0.0387163340905733,-0.3384013321929559,0.3483382273395262,10.118170822544885,0.0960646781756537,-0.0566311566532231,0.2027710228711167
108,1080,0.0053563765348573,-0.0567617564168916,-0.013960869048109,-0.029775284003705,-0.157142592349502,0.3589113259963464,10.385019945501522,0.0958502574133021,-0.0499752949231767,0.1202526616131904
109,1090,-0.0151795999732453,-0.065202904606603,-0.0182022515678954,-0.0488421755141462,-0.2899083864418798,0.3368136156320864,10.152554069210366,0.1108000126461475,-0.0379950326676036,0.0874411476930787
110,1100,-0.0083223028907783,-0.0544586160880014,-0.0038782380432608,-0.056791581532292,-0.2753216564011927,0.598871581260361,10.284930775028323,0.1316700179714439,-0.0379099273742476,0.0782001688899819
111,1110,-0.0148868974928173,-0.0421032380668028,-0.0051319267688717,-0.0746412873658041,-0.2677923961511503,0.3155499640209808,9.968863628951835,0.1037201839309268,-0.0547777200931788,0.1959509856763988
112,1120,-0.007707340160188,-0.0431479153736552,0.004063216012119,-0.0356407556768654,-0.1458476460085393,0.330055257737121,9.838076158645569,0.1080563026898248,-0.0536231555409598,0.0797030490271043
113,1130,-0.0108693176290004,-0.0567484902478089,0.0065016617956597,-0.037297754822891,-0.4310806562506762,0.4723506508079273,10.387814891198223,0.0902311116364251,-0.0446308948715347,0.1130742072184429
114,1140,-0.0025176125226355,-0.0527547312540043,-0.000844902024559,-0.0408166029724486,-0.3455674512957041,0.421290805031365,10.152400159323149,0.1099730009047757,-0.0548856231825386,0.1440993608942372
115,1150,-0.0145001944342709,-0.0538116791364878,-0.0226657713551414,-0.0584472660430663,-0.1523834951437762,0.3990171918836441,10.309840962790062,0.1057253882880699,-0.0281665749288092,0.0586376142043253
116,1160,0.0033418516609051,-0.0417614863928159,0.0120927910359337,-0.0364573652429958,-0.2455638411895971,0.3873461032694109,10.173757600792714,0.0740688016313787,-0.0608033815971641,0.1634570412916968
117,1170,0.0071816531604379,-0.0430579499130141,-0.0049829884676104,-0.0371084287402682,-0.1868100932660936,0.4617739947786389,10.407514511918029,0.1065767914176111,-0.0592221837744862,0.1065263195369878
118,1180,-0.0057056318991943,-0.0557540437681208,-0.0025810421164762,-0.0449210377145166,-0.142910703648758,0.3479241571486168,10.421043801922435,0.0791198584631154,-0.0489719297741026,0.1594908072078356
119,1190,0.0052219476563247,-0.0545084576294875,-0.0037779730326805,-0.0560108136247665,-0.2490931411331684,0.6509346499831606,10.25039324529846,0.0997801967438461,-0.0443676154159597,0.1278658235845984
120,1200,-0.0100887161326194,-0.0434378428701348,-0.0043983072128951,-0.0374634777487743,-0.3577531145659979,0.4516565063893384,10.28018963102345,0.0921284226262422,-0.0407080666070515,0.0799792057150214
121,1210,0.0087636702538205,-0.0612752317152635,-0.0010953142416946,-0.0439437797245203,-0.2600291795445501,0.4088995573400829,10.181448148642302,0.1199570002755284,-0.0394180122397852,0.0887423954821831
122,1220,0.0137477961444328,-0.0369417370906944,-0.012896663817709,-0.0410810152199409,-0.223347843695175,0.2771751308979699,10.278048710207145,0.0856256649447767,-0.050535596714314,0.1433734109170264
123,1230,0.0071932394272348,-0.037209098586041,-0.0082334604498453,-0.0429195189027954,-0.2238580764656423,0.360858199984445,10.24846529085363,0.0568258930420506,-0.0613386503171761,0.1027448323459321
124,1240,0.0086507830695751,-0.0572243997434144,-0.007993398664362,-0.0221882457634086,-0.1250292790039077,0.2832289544800997,10.163847507114562,0.0702834258202591,-0.0682881279096305,0.1314319324473146
125,1250,0.0269688805312616,-0.0453420598204113,0.000127503933222,-0.013869074183107,-0.235870152117794,0.5266555921862524,10.43398147916512,0.1186518263468964,-0.0485948827170652,0.1028739953774852
126,1260,0.0284872522526346,-0.0141418282435368,0.0071304147680404,-0.0368515147383262,-0.379074582551166,0.4621584068018047,10.238455182908943,0.1041319949347194,-0.0532785737061572,0.12571943889556
127,1270,0.0082384956289755,-0.0394613627551783,0.030384442722285,-0.0045037778183089,-0.4769822339310069,0.5057041458226265,10.36203611406759,0.1173034162956523,-0.0475869949588363,0.1477371712516015
128,1280,-0.0043818098455324,-0.0451427571948577,0.013856102578014,-0.0206845543735574,-0.4678107319562992,0.5093170135763258,10.39031381217908,0.0791757593551717,-0.0390730462860051,0.1138625432179654
129,1290,0.0157137132352515,-0.0290618666363017,0.0198374219757131,-0.0419916183534579,-0.3564081331641666,0.4220442861569037,9.924025065571906,0.1088972954170843,-0.0511131573730119,0.1597390081286445
130,1300,0.0061872384733009,-0.0400907256518817,-0.0024828419646992,-0.048650788284033,-0.305014237277699,0.6008121751307691,10.085637416644095,0.0553847023687357,-0.0534505022759756,0.1223059836261611
131,1310,0.0051331744994005,-0.0331462820897079,0.0112286896081561,-0.0216164277679677,-0.2741103097478603,0.4015067000052977,10.225550568672553,0.112297088159578,-0.0415137722382379,0.1623185237260636
132,1320,0.0138573220313975,-0.0498229329958846,0.0084436260155064,-0.0241158362201813,-0.3657375434531198,0.4832067328879964,10.039007957025424,0.1217002555195316,-0.0298869632156752,0.1258839551879644
133,1330,0.021305983254633,-0.0138845808540395,-0.011073801877765,-0.0245442027626635,-0.2442188263113021,0.2677068960558738,10.079774426732213,0.1027110772458049,-0.0266606585871927,0.1139854903431702
134,1340,0.0067342733549279,-0.0436344510595542,0.0071314038132003,-0.0374157347853886,-0.2252526004849922,0.5004440152234679,10.231393887421318,0.0990141490906797,-0.0606546932463635,0.1591908159113895
135,1350,0.0225159288351323,-0.0509239109816425,0.0178119247695901,-0.0421440753705627,-0.3018301544716402,0.1965776637896682,10.112453820053467,0.0906258206971706,-0.0437598309592194,0.1558526936000406
136,1360,-0.0105143137624963,-0.0429440838610614,0.006716170837244,-0.0343717987366388,-0.3522316572288958,0.4533547079283195,10.032194653332075,0.0693768298238268,-0.0639260096730168,0.1185478994153662
137,1370,-0.0049118849066665,-0.0447414625453804,0.0064524103159808,-0.023255999036504,-0.2958787858254695,0.3343012084212861,10.22527612311664,0.0730538591550133,-0.0646023777703264,0.1916187290723519
138,1380,0.0088528923041201,-0.0299146131571472,-0.0100713642505589,-0.0418025016207297,-0.4034791759230869,0.4602936200066477,10.094756770895176,0.0717443563232399,-0.0452493279818956,0.1008487345119592
139,1390,0.0100777776981735,-0.027479334041836,0.0070201664580871,-0.0143435426907171,-0.379686211402523,0.5783999740845283,10.149345283713654,0.0918408418419337,-0.0459151490797439,0.1200013672467154
140,1400,0.0176728688679441,-0.0410682189769425,0.0073145431361488,-0.0345157191896605,-0.335619153081589,0.3053139916479908,10.12128677642101,0.0789477637108438,-0.0416669859740364,0.1021442602007187
141,1410,-5.235144436941536e-05,-0.0493206300035789,0.0225827231738785,-0.0154338042783873,-0.3496243089792932,0.3791306291896377,10.267255553050708,0.101060538681017,-0.0603079817374135,0.1539608031936494
142,1420,0.0100329978286151,-0.0282486846574237,0.0264623005479994,-0.037149618732256,-0.1552085863323442,0.2912502142768484,9.802677736135022,0.0711116536954184,-0.0461586113021119,0.1457063240701754
143,1430,0.0095879583907746,-0.0543216874929044,0.0065039270227791,-0.0464679881296108,-0.5313229181098518,0.4131779402907358,10.062678029136846,0.0713402197791556,-0.0393076577239817,0.1331221669807868
144,1440,0.0197466512149235,-0.0339216603372664,0.0166742752626822,-0.0556534158022873,-0.4099127260059622,0.5607613994064833,10.260277728621835,0.0921389272607153,-0.0506125240051775,0.1494424927598687
145,1450,0.0194255281512119,-0.0347200601085406,0.0129358691324181,-0.0236057973186065,-0.2383608825226113,0.5197988387768684,9.932938540497538,0.1202580853988527,-0.0532076239937029,0.1054168112842137
146,1460,0.021607628198366,-0.0377309038317221,0.0043923331528524,-0.0496867273969899,-0.3457185782214645,0.3348340587534931,10.173069899902284,0.0597791357092367,-0.0465392183517223,0.1165290807114526
147,1470,0.0468124967309723,-0.0417961324322765,0.0240606456416964,-0.0198108358654223,-0.3190772593947189,0.5148585952506826,9.984562346421038,0.0503387643135083,-0.0633483159755097,0.1100970453421294
148,1480,0.0102837806717387,-0.05729639058479,-0.0069550275567363,-0.0210930739306227,-0.3027496398978017,0.4788211444782898,10.035243837910595,0.0788094513443914,-0.0513482055648371,0.1342781332177509
149,1490,0.0213807248812356,-0.0365792066873882,-0.0004567810979518,-0.0193834696623747,-0.188812334174927,0.3377562960644875,10.382087936746176,0.0541798240427419,-0.0486519387523267,0.1338471771572761
150,1500,-0.0245194951896672,-0.0402151812248191,0.0106008361694762,-0.0505214976034575,-0.5466863746798212,0.4026698965351671,10.210006295154924,0.0705665194029286,-0.0413287115293569,0.1439289251859291
151,1510,0.0461356479074619,-0.0238825987761992,0.0148328935243747,-0.018802244928953,-0.4873477158361465,0.4161621898461694,10.063071851105256,0.0719105169757842,-0.0529725083997799,0.1387024893254077
152,1520,0.0089744726787634,-0.0436375346820984,-0.0076137536112776,-0.0580183047511983,-0.4031895396104221,0.1813005978306257,9.910885939043974,0.0786439395829623,-0.0421649023108623,0.1668742966464549
153,1530,-0.009190571877452,-0.039282403643423,0.0017762604196367,-0.0270483744670152,-0.2024352781257667,0.5500392941631833,10.230805788055845,0.1014297604024521,-0.0538013281475352,0.1176452834879798
154,1540,0.0167609565557903,-0.0411188923891071,-0.0109223494703307,-0.0311810605506708,-0.1602564203426703,0.2961681212813559,10.188570744269512,0.0729031152981114,-0.0675774728883606,0.1489644093821336
155,1550,-0.0021637666955645,-0.0251369029818282,0.0117570365126244,-0.0513136265326236,-0.1711446946248135,0.449199153232593,10.375695035199332,0.0713941055718307,-0.0420047306960302,0.1714483705581799
156,1560,-0.0039221769628813,-0.0372319071341237,-0.0008707402808088,-0.0512006856139122,-0.2072321601093315,0.4753223928961953,10.583841461882582,0.0554986349105307,-0.0442672228525764,0.156551226175768
157,1570,0.036704202677584,-0.0293267566073019,-0.0064523931963092,-0.0344338322386069,-0.2995241799011706,0.3806968501326734,9.78260070904535,0.058804268220677,-0.0477391700529702,0.1608087807221263
158,1580,0.0089148220652916,-0.0471083332412481,0.0178856627977214,-0.0359658532618876,-0.3863993975831405,0.5471445502846091,10.178321304526262,0.0823943555046087,-0.0376705307890616,0.1560460580915904
159,1590,0.0253149475304745,-0.0204066136258721,0.0197152630091728,-0.0210290442690684,-0.2579695146096933,0.559300529604416,9.939180859598084,0.1142728005557883,-0.0600856361119789,0.0903476113170776
160,1600,0.0044434083328148,-0.0321530441211411,-0.0170645247933996,-0.0305477155760193,-0.2978302704295686,0.404264028081837,10.685356706804528,0.0693966688613483,-0.0478598756337095,0.1245110440451857
161,1610,0.0194941650895144,-0.0522185856318966,0.0192078471913901,-0.0563243135375526,-0.45178533395721,0.4185713077242903,10.259549072900237,0.0734517545742632,-0.0525012905800458,0.1913054969810533
162,1620,-0.0164063056767154,-0.0430814048667435,-0.0250403550026088,-0.0472778084825794,-0.2002934858068457,0.6186902132547476,10.32225086298207,0.0645471923353666,-0.0363904375184536,0.1274079232453695
163,1630,0.02824578746561,-0.0388878194353515,0.0049544285412864,-0.0445461633125751,-0.3698719378347403,0.4642788832596892,10.039567672017723,0.0618695185740694,-0.0502562242878392,0.1494341190796562
164,1640,0.0120498772737275,-0.0395493120829087,0.0122568042627598,-0.0323753323285649,-0.5468320325475481,0.3014320872181335,10.033110837144868,0.0876417974544811,-0.046881002858087,0.1268986225450241
165,1650,0.0109097993719225,-0.0295018495033653,0.0207563566073223,-0.0298494610899874,-0.3933641497912794,0.2873487955751684,10.262418066991556,0.0564509943923911,-0.0429954241932321,0.1443252379051486
166,1660,0.0149911251620082,-0.0568647797432256,-0.0005967224103561,-0.0472734966972539,-0.2418557799892896,0.541746672945177,9.929718636728552,0.037847274991791,-0.0429849226284314,0.1595803534569226
167,1670,0.0339812106334464,-0.027449996661504,0.0210086433695582,-0.0161974626805877,-0.2282948795260338,0.4272884102742278,10.307645041847447,0.0538678453715942,-0.0586504610217101,0.1349291089799942
168,1680,-0.0022136559307819,-0.044030107299,0.0102829985684953,-0.0205120411756328,-0.3972401578362424,0.5536367804177635,10.053418566143334,0.0578056748222434,-0.0450318148862714,0.1344096525736278
169,1690,0.0238713792654667,-0.0445470910846407,0.0191447786656366,-0.0202404458426927,-0.2706774429845349,0.4988964031006327,9.812416002173409,0.037427145825166,-0.0452251607671974,0.1657749735311177
170,1700,0.0217370521904873,-0.019523997148819,0.0178544506976484,-0.0203313083533923,-0.2084590495668504,0.4878721033517448,10.03513593495246,0.0752136578406372,-0.0613442253191625,0.1290721929097016
171,1710,0.033236635596327,-0.0173302392878489,0.034960355465646,-0.0225954602996857,-0.3130180299455279,0.4825632144982243,10.130499848659742,0.0625147293636196,-0.0462707123570401,0.1266450131703803
172,1720,0.0433846111149094,-0.0328309112674435,0.0178195206052125,-0.0262246696423226,-0.1769611745424857,0.5612737541917231,10.34875030141982,0.0468513900228278,-0.0308723199889595,0.1921443536444249
173,1730,0.0542677256784979,-0.0431688551160281,0.0440440527706344,-0.0170839964286145,-0.3455163571599912,0.4243388786403455,10.209821244241883,0.0376871002766033,-0.0412715380402134,0.1559926405181846
174,1740,0.0335370990428701,-0.0244546419997584,0.028951298147706,-0.0369138112946049,-0.2265940768691839,0.7009192904112381,9.942958885456877,0.0422693362853688,-0.0648619797989359,0.1699611471787831
175,1750,0.0394047547910159,-0.0011527691912306,0.0440482915352534,-0.0034132702992761,-0.2617852268858892,0.486578350635642,9.912977927173944,0.0271646376551264,-0.0426401970856742,0.1224694720411789
176,1760,0.0441519809746085,-0.0036917727962292,0.0326144213146136,-0.0237627408463145,-0.2931588355271865,0.4927384457397914,10.552414198617688,0.0417240205076728,-0.043820647713585,0.1554202143949664
177,1770,0.0421850526539411,-0.0272710835832857,0.0466806711272278,-0.0122660705472143,-0.2730768370789715,0.4478462756997898,10.175560537081058,0.0696672738539152,-0.0381151761797994,0.1754088342031429
178,1780,0.0409390029192197,-0.0069387265996521,0.0336742350537262,-0.0112104957231765,-0.2125320848509757,0.4508365561639984,9.695844575430687,0.0557802551600075,-0.0575145816609387,0.1587551752949169
179,1790,0.0490115790365369,-0.0231030109811277,0.0180018037400076,-0.0250487844295024,-0.1802178059746218,0.538959657531535,10.073481777586789,0.0098255906369591,-0.0501043972643659,0.1829008206756168
180,1800,0.0425038952614121,-0.0156182532074069,0.0183495954533716,-0.0063445451707098,-0.2187637410073873,0.669291241342238,10.10887192580002,0.0752106013602927,-0.033846023520574,0.0918811843143089
181,1810,0.0433480032067161,0.0035596758043859,0.0525856720179903,-0.0104355236201791,-0.2422065437306163,0.4674136629445689,10.184353914949106,0.0321574088743088,-0.0321486823969902,0.1409656525042058
182,1820,0.0331518655918399,-0.0106285893096438,0.0262948603898393,-0.0305917662759342,-0.4801588833701884,0.4150219216363699,10.293326003826309,0.0350458531202452,-0.0712498155554708,0.1692933865502348
183,1830,0.0571789214072914,-0.0423664337536756,0.0360726257651614,-0.0236044028614565,-0.3454056204472028,0.5735743403913961,9.792743864861986,0.0353338842468343,-0.0555424049159471,0.1880177557813225
184,1840,0.0415171696786569,-0.010517051440228,0.0594234813337434,-0.0028799852308255,-0.3706134030472375,0.3997933703568485,10.05071420133712,0.0397666598097546,-0.0562581853427461,0.1573629069238612
185,1850,0.0435622098730495,-0.0056588253633807,0.0565575234322593,0.0122590430183751,-0.3532247853354063,0.5954783377377454,9.971503212151324,0.0413260664599242,-0.0519049037544474,0.1127837217624838
186,1860,0.0625053539943913,-0.0224866557383226,0.0507690778397409,-0.0067042040649887,-0.1873990342519469,0.3732298431336237,10.140450809905406,0.0287819604448436,-0.0510542692786302,0.1124678832431453
187,1870,0.0655769925527074,-0.0078477330547253,0.0702797350341483,-0.0137556562997149,-0.2074191173224273,0.479866352399448,10.116786695243526,0.046056661473544,-0.042214594833922,0.1493958862595089
188,1880,0.0474898204879229,-0.0156612080813232,0.018970022060656,-0.0094516327314361,-0.2160809899363224,0.6108098561760568,10.18743718098707,0.0496441972780723,-0.0453107007277681,0.1307020232292058
189,1890,0.0454658327536393,-0.0128759166761552,0.0507363171588822,-0.0015695168947101,-0.3391790104121927,0.4853904271941734,9.81702573972322,0.0647692423365161,-0.079482745562591,0.1504677033110402
190,1900,0.0586481995136808,-0.0141556130641038,0.0423699231610375,0.0031153716838956,-0.3845396882956188,0.4342745467498011,10.07241908366685,0.0097786852951971,-0.0558116453896764,0.1473929469737661
191,1910,0.0437910251570725,-0.0127164489499839,0.0443408620807227,-0.011560396429997,-0.1357466096848266,0.4280108242400878,10.107914122349577,0.0197221757685957,-0.049499679120013,0.150267255990926
192,1920,0.0375952980302405,-0.003403796169553,0.0312858633286197,-0.0066949309125972,-0.2190886499452048,0.4362371177654573,9.904478169160704,0.041078483998988,-0.0266499988753657,0.0944650872374443
193,1930,0.0371945203840761,0.014381927126956,0.035268614229367,0.0134739186046834,-0.3187779692860488,0.5429074046852786,9.850036566058956,0.0656568899802949,-0.0435642397442324,0.1480733911329224
194,1940,0.0499442929909266,-0.0140878309213382,0.0671146531331278,-0.0121565490599731,-0.1804984543680892,0.4930255723879421,10.260120058788653,0.0316501331616115,-0.0548003645547325,0.1766560439484577
195,1950,0.0512814520062156,0.0125359540818125,0.0403485519549668,-0.0114973332587429,-0.185195578569022,0.625793730877361,9.991463597369735,0.0633332287269535,-0.0446075355753089,0.138594844957294
196,1960,0.020513878107355,-0.0216912692997172,0.028310306910589,-0.0263527154983252,-0.3142714568183772,0.4211454026985281,10.073373180415247,0.0282065089579501,-0.0333323231633967,0.1558705524991906
197,1970,0.0298079790266842,-0.0035433229215234,0.0571748548942178,0.0004543046087462,-0.5558637621503406,0.2877897179819566,10.273576607253316,0.0331493778189015,-0.0422345072951913,0.1699844578748672
198,1980,0.0554707413135033,-0.0136975200200957,0.0414714891816025,-0.0002534885045463,-0.2272016955019151,0.4618744675932562,9.882460907812051,0.0523975121980401,-0.0457062316971783,0.1826234282651037
199,1990,0.0339829579772896,-0.0337546558143508,0.0288447222613964,0.0039667424029013,-0.0512461036464763,0.563955437005317,10.056632091948588,0.0296166264358495,-0.0523251060693764,0.1405119124728025
200,2000,0.0305283481248295,-0.0268498816156131,0.0218057996911022,-0.0152087112097641,-0.3477012201185785,0.4095565581840919,9.921241841774876,0.0478004252686018,-0.0353319008673902,0.1369678696292266
201,2010,0.0232661774596384,-0.0301262586265719,0.0139149400863263,-0.0127643862031964,-0.378329443993203,0.5814634294803863,9.919739310856926,-0.0085115721273512,-0.0367942529641713,0.113626774438111
202,2020,0.0288408787283665,-0.0152051509006122,0.03955907807673,-0.0045363791580362,-0.3524689810269097,0.6944392159384822,10.132906422567396,0.0618658044357901,-0.0482820440104968,0.1055246181101352
203,2030,0.0247256362763485,-0.0309790923021644,0.0215390835177565,-0.0077124274139703,-0.2004164523850253,0.5523101758833445,10.354148824127874,0.0576441593130806,-0.0422655969747098,0.1689008268600884
204,2040,0.0378995965979583,-0.0206901066456182,0.0367793019517133,0.0001934198264254,-0.2408436767373449,0.5911199179273321,10.120676931373533,0.0066214483333052,-0.0654674878926186,0.1824589463434774
205,2050,0.0182418972653397,-0.0343127711956423,0.0176747708852197,-0.0369816963276547,-0.4015866993396608,0.52352172800201,9.75284871766263,0.0359753772907556,-0.0467789310613704,0.191532665983691
206,2060,0.0141024750324197,-0.0313370494190187,0.0311459533607568,-0.0054897915405644,-0.2783032264228036,0.4391093151530139,10.309034288312848,0.0422758902500938,-0.0434372599109001,0.1507095313402965
207,2070,0.0323495648080095,-0.013788812409895,0.0404275907447566,-0.0224968581798634,-0.3257129100240341,0.3379860091528642,9.910276703456235,0.0306977053696707,-0.0340703957068828,0.1657626965913274
208,2080,0.0641401336887837,-0.0312693778060201,0.0530883818301258,-0.0127622823830402,-0.3120788044875328,0.5504979695538498,10.135744622775189,-0.0155095556761629,-0.0515554251331137,0.1316724161728414
209,2090,0.0407470645097678,-0.0204325621965898,0.0394234344440163,-0.0194280673968963,-0.1231980836852879,0.7114749117066627,10.0857862873072,0.0006228313337254,-0.0431316942364989,0.1675193140587297
210,2100,0.0307554481394477,-0.0236936006209654,0.0369107160659585,-0.0069630732752474,-0.2930412201515051,0.3725365735190905,9.503533141263702,-0.0040207201023074,-0.0379177666132437,0.1694763181663066
211,2110,0.0342055234685956,-0.0110416047857384,0.0410622548556241,-0.0168539418000969,-0.2935736002212842,0.4537160901091657,9.612675833228693,-0.0425750721509275,-0.0464569530179309,0.1040757442841054
212,2120,0.0342162609329677,-0.0215064105531024,0.0302983819277351,-0.0172752197566743,-0.3159602543759802,0.7210817657665163,9.862101754864886,0.0170802173559794,-0.0499291898388286,0.1862296829077933
213,2130,0.0343668077393811,-0.0210223731294662,0.0341394785489574,-0.0250322095580855,-0.0651863094879827,0.6835480823105591,9.930712345184467,0.0115165629328886,-0.0418242996622217,0.154736155275999
214,2140,0.0444586797743755,-0.0162732450774643,0.0190819256896483,-0.0201014625842824,-0.3326256532446592,0.4198135284804823,10.16749776456554,-0.0092500978851445,-0.0430058490926932,0.146704016412437
215,2150,0.0223694441527731,-0.0379737697187123,0.0233786358213951,-0.0235217075600059,-0.1693400947069129,0.523516288804717,9.747897196689191,0.0080437571175327,-0.0534448032589747,0.1984389655966543
216,2160,0.0167165192569579,-0.0240676961980562,0.0364802442141894,-0.0074841219674083,-0.1653957223482244,0.684842770588456,9.825696081303072,0.0053553779740157,-0.0481558842087548,0.153360327544719
217,2170,0.0610466452169611,-0.0178655343294912,0.0686224178260439,-0.01440344887123,-0.4581567922200663,0.3953151293601402,10.101893701889196,0.0257749119851057,-0.0416538126980522,0.0738786358272048
218,2180,0.0495078365355425,-0.0056127781250549,0.0580964835528215,0.0090415920414034,-0.1396778848700317,0.1503325800777133,9.877225554879354,-0.0281609848888183,-0.048258640059065,0.1498793764340109
219,2190,0.0571547363971289,-0.0152269383895296,0.0300936562229804,-0.0085535455293138,-0.119908203249933,0.5808224895576118,9.537687783561308,0.0310700480537849,-0.0207828844991195,0.1068969815495532
220,2200,0.0480467433437354,-0.0072852053197091,0.0549865232528298,0.0168384568947291,-0.2741349413244927,0.3702077410115387,9.921112582869808,-0.0245261190700274,-0.0543963915236706,0.1501092951176658
221,2210,0.0559345580879546,-0.0300420681506151,0.0357512720081579,-0.0100826750147837,-0.2133830334720379,0.438127564443452,9.930470639669478,0.0182646090556111,-0.0304044854675327,0.1043031445760665
222,2220,0.0414571759082633,-0.0342497328486381,0.0388219022538024,0.0023586378169993,-0.1990037347589562,0.6980923630282592,9.862660221726792,0.0219635452510398,-0.0265384689278627,0.1580814794240266
223,2230,0.0550483048254714,-0.0141430060155489,0.0395006129697275,0.007248129853536,-0.2190528776768021,0.2730694119076359,9.855673311326026,-0.0054981510185694,-0.0267585224348021,0.124180784555404
224,2240,0.0468852602143231,0.0007379023489172,0.0406149242485509,-0.009820732751404,-0.186280839323933,0.5639984056341236,9.966322650348614,-0.0076387711332425,-0.0268977571824309,0.0955753018145952
225,2250,0.0276822347748215,0.0089841565485419,0.0534285110020147,0.0027162873838924,-0.1937329218509951,0.5010388043036932,9.89592527469687,0.0465400267605632,-0.0386792956080272,0.1160190669968769
226,2260,0.0726778153489262,0.0102845281805077,0.0476050662643458,0.0099833054495515,-0.2967834947426849,0.6062293286725954,9.59477896255832,-0.0019025273551234,-0.0188484993030206,0.1406379745916741
227,2270,0.04983545269055,0.007378812742702,0.0544770735945437,-0.008776241086831,-0.2226590443414318,0.5257331986102335,9.558344053731366,-0.0061232596457164,-0.0264394662020118,0.1840142229832898
228,2280,0.0391445380293143,-0.0070647607548499,0.031530301676423,0.0010592316164098,-0.109457815388971,0.4645751984780583,10.074972155800443,-0.0268491283001165,-0.0165286662037562,0.1371449543274028
229,2290,0.0683787056255506,0.00656476074902,0.0471839668363879,0.0021714114798042,-0.2380968939106966,0.4755172257090264,9.688351950216292,-0.0714576270449245,-0.0410333058927456,0.148415678522598
230,2300,0.0527698207388844,-0.0039505000897762,0.0774469783946021,0.0078793339391225,-0.352016593890556,0.3102140848064655,9.72987671816849,-0.0375087998447487,-0.0434111450129178,0.1292911048011688
231,2310,0.0579007320766767,-0.0031224488215226,0.0501689772917234,-0.0053422619547348,-0.2624181623386399,0.4603398118730847,9.901256302238275,-0.0061306584350974,-0.036893082343,0.1401818219062639
232,2320,0.0735362267837636,-0.0022662912772858,0.05023923060078,0.0067437077226737,-0.2950124764259358,0.6000886603057115,9.887245271300817,-0.0175382338599657,-0.0250223139869637,0.2031586960795803
233,2330,0.0500615479225548,-0.0055726743243375,0.0613410799746448,-0.0023663160075818,-0.2689826417430481,0.5521253230817912,9.984343218322731,-0.025483551705235,-0.0405899329103918,0.1402658068279378
234,2340,0.0661042640021185,-0.0034192412286151,0.0747636400632184,0.0134174136795422,-0.2046524134473198,0.4706879480507711,9.82836237088006,-0.0120997730101115,-0.0498752741879303,0.1027148408035163
235,2350,0.0411779748585174,0.0073365053897367,0.050352450949615,0.0152862962308887,-0.2784234585457675,0.5170913465382084,9.620067541921587,-0.0231118749809132,-0.0207052102451137,0.2207885387576802
236,2360,0.0673905632394271,-0.0015512016163898,0.035199693426699,0.0057126366521469,-0.2160842842473731,0.3617885016866218,9.815586803230577,-0.0502647028644411,-0.0320855411620856,0.153762396129605
237,2370,0.0576926033205772,0.0030111369960871,0.0602183140175355,0.0083827921481815,-0.1063368001795492,0.5192561026246723,9.551566605944377,-0.0470615114767102,-0.0237395800122413,0.1236523206667891
238,2380,0.0447833329147033,-0.0313595415941975,0.0294523847943437,-0.0052758366880539,-0.0613164981624909,0.4190598123503889,9.6068717016453,-0.017226216453969,-0.0308769242725117,0.1477862042186198
239,2390,0.0438383291334258,-0.0019265659439177,0.045661763347923,-0.0235550487624627,-0.1675168001655523,0.5731649844815697,10.099675553040608,-0.0361103502016019,-0.0196583913182751,0.096467804142735
240,2400,0.0591908079943675,-0.0184864699065691,0.0427602712325443,0.0173274712696561,-0.103477316922541,0.3175480597151899,9.99192873393656,-0.0416970045440457,-0.0170548435646639,0.1231858220009881
241,2410,0.0502800544675435,-0.0059367103230014,0.0549946657695071,-0.0168212411008894,-0.0387707228743519,0.5214082903538267,9.588223489108469,-0.0120749351953854,-0.0503536656563393,0.1711478869633066
242,2420,0.0546476782435391,-0.0189289797804573,0.0590431621306113,-0.0045802474674629,-0.1536548585558018,0.431618966256626,9.551388860185735,-0.0409290251822196,-0.0209913122539538,0.1724511082930718
243,2430,0.0474301547925423,-0.0204106042711981,0.027681886038349,-0.0017060066497176,-0.0013612633411155,0.4302695188190121,9.167751628740664,-0.02584550101967,-0.0366384375131568,0.1788473042192372
244,2440,0.0619495853680165,-0.0108662796704969,0.0549995059105425,0.0126310542881028,-0.1359725278545468,0.6298468384500578,9.776393954048354,-0.0517726598981116,-0.0262984938007806,0.1343062658009844
245,2450,0.0414608244489677,-0.0128351729549235,0.0306591565975872,0.0135740584317336,-0.0407052309252851,0.3306280991531219,9.536491831852084,-0.0314083665617781,-0.0353209846858017,0.1550012893547845
246,2460,0.0406787399738018,-0.0132785649158075,0.0380409487324193,-0.0073297703499972,-0.0774429361777345,0.5535529835308968,9.51929159613914,-0.0104401733922448,-0.0288771033615729,0.1477442291468833
247,2470,0.0305946208448181,-0.0219378203735062,0.0209287803672718,-0.0137672680085847,-0.1067873732032421,0.6419742185364952,9.655549742645915,-0.0361240190859421,-0.0419747624332214,0.0873265978179829
248,2480,0.0507971895825351,-0.0131580332268146,0.0427654587912878,-0.0160416243177249,-0.2457385487196694,0.4353200392665064,9.535516533342644,-0.0238365116406817,-0.0313519245600254,0.1764165358326158
249,2490,0.0670519420224279,-0.0078127680345769,0.0390873884401738,-0.0124111166507796,-0.0066396290444909,0.5726843284651136,9.657868370403156,-0.04280304635606,-0.0279798598354854,0.1969832084125649
250,2500,0.0440374234891614,-0.0344179106255992,0.0398542460247022,-0.0128635769963875,-0.0339244862206808,0.4050731441074466,9.568959025004578,-0.0296577633251983,-0.0145319145602462,0.1406923272452938
251,2510,0.0220772013021486,-0.0295890045480211,0.0101903841451248,-0.0040706626300554,-0.2721016840160253,0.5521238687325304,9.540380561566574,-0.0759530306225735,-0.0186181907218766,0.1820041109391708
252,2520,0.0233960699211231,-0.035276814975371,0.0187474094862793,-0.0333585528638931,-0.0896493997194155,0.3936071960658831,9.655482285583512,-0.0259097836363317,-0.0357624056511726,0.1043129297378467
253,2530,0.0452888365390544,-0.0122650157721413,0.0336186559830707,-0.0120884320966915,-0.0288080577883752,0.3785889525635026,9.535659374544924,-0.0183449313247339,-0.0415571574281804,0.1478637175505973
254,2540,0.0390468444426319,-0.0316297947286195,0.0346506659461115,-0.0279059148411494,-0.2301707601901836,0.5239217916424166,9.812573229494737,-0.0138284768539349,-0.0154772478426959,0.1219199205509071
255,2550,0.0307582863881331,-0.0246064074703525,0.0204747076817908,-0.0248831624377568,-0.0798308675790554,0.4843331170596023,9.457156743113927,-0.0497017729446284,-0.0265162141477482,0.1099210599703699
256,2560,0.0359688208906622,-0.0280536628074841,0.0251088970859153,-0.0191333623851852,-0.07431195210941,0.2757604138386575,9.407579256248017,-0.0559382004128725,-0.0352296285948741,0.1591680220143873
257,2570,0.0268846322153815,-0.0325704597335509,0.0140268743834051,-0.0312461840437782,-0.0723411771029405,0.7055547991349046,9.40666462347648,-0.0108722540597462,-0.0153861571798704,0.1408846473704926
258,2580,0.0150036117382301,-0.043986099064961,0.0150980318318182,-0.0232603625182991,-0.0768551524267696,0.4568128177887325,9.378240042824604,-0.0654892418333976,-0.0098336431206485,0.1788223738066761
259,2590,0.0247261517910995,-0.0282012517538491,0.0104369253533886,-0.011150169699675,-0.1880780751112019,0.6753675118837603,9.487529007625138,-0.0120983842999185,-0.0081261972994362,0.1318359063835349
260,2600,0.0260314813179512,-0.0507319388330358,0.0277858051094554,-0.0236075182582702,-0.1072087813143579,0.5249484222251656,9.42244839796383,-0.0710136503232203,-0.0218532124427704,0.1755885311443105
261,2610,0.0294839351848297,-0.0308867944840794,0.0260315777787687,-0.0266048537057253,-0.1920009825735747,0.3384650961553197,9.814884921381244,-0.0289636013697938,-0.0376773025132815,0.1405359310257061
262,2620,0.0173856650986836,-0.0466775286214949,0.01816093112651,-0.0217991318794156,-0.1529932112648986,0.3984861838973963,9.554376064972184,-0.0533407827965845,-0.0160659496707204,0.1583767403406453
263,2630,0.0237597121238632,-0.0285755892183049,0.0268026147108189,-0.0253558163815088,-0.1318902709549562,0.7038070384237818,9.37424245452939,-0.0607804750190066,-0.0190111957023099,0.1979445732158241
264,2640,0.0201142115672204,-0.0256629610372007,0.0229992900403337,-0.0161769860233266,-0.1043733069552538,0.3840519586766234,9.415731249803056,-0.0392913890787923,-0.0026813700249937,0.1111824169316923
265,2650,0.0382348719121908,-0.0139435790389672,0.0341046655899556,-0.0076486010420895,-0.0484751716392308,0.5534785483609314,9.750030312028816,-0.0560598691257083,-0.0330700901915434,0.2048161199374964
266,2660,0.0284613992618974,-0.0219133739240081,0.0058788541213681,-0.0040413959326417,-0.2410978243894815,0.3279893016438183,9.957771937275698,-0.0567072252443991,-0.0174014150412579,0.1349225038830386
267,2670,0.04387404794864,-0.024165982465822,0.0200276366705592,-0.0091953739097482,-0.1290665391137532,0.5975536559540909,9.491268693155844,-0.0523485713601243,-0.0322461247799404,0.1735299964196595
268,2680,0.0032698480777934,-0.0264470128923398,0.0008027623802881,-0.0193754310850156,-0.2365142766622325,0.4270109540645627,10.006135204540016,-0.0647380370373684,-0.0050754718398742,0.1722379270545979
269,2690,0.0300587622237963,-0.0230885814994666,0.0047740158745267,-0.0147628484927819,0.0035487036335399,0.6591816296401023,9.189506120075029,-0.0459688498378416,-0.0328381017106247,0.1166761431033479
270,2700,0.0224936853362686,-0.0325354186615133,0.0290170034568018,-0.0094805620190102,-0.1671960824675412,0.6333179649359151,10.02110625052978,-0.0703846417103466,-0.0061311150267021,0.2198164479113898
271,2710,0.0276648297607232,-0.0417379846643282,0.0033934350213462,-0.0218318911366421,-0.1431289188415812,0.3977861006506513,9.246971206331786,-0.0472594899217063,-0.0032072964289996,0.1584626167290989
272,2720,0.0303892563110106,-0.0301813438702291,-0.0001321947940323,-0.0503939314568955,-0.2471591260822715,0.5789160721781055,9.695896029184,-0.0429779653926187,-0.0102764399360917,0.1397268442194804
273,2730,0.0445863919551223,-0.0266822790391419,0.0372255570752319,-0.0176044110407275,-0.1184322267165788,0.4392476806464954,9.665447095553723,-0.103537573491182,-0.0226013025966626,0.1610067642685654
274,2740,0.0146047871295173,-0.021243407618868,0.0177566646803643,-0.0296040839279026,0.0288778884455964,0.616396683118199,9.084381365688156,-0.0155703433436908,-0.0141926480779583,0.1517064667661508
275,2750,0.0558712484861365,-0.0176909885790916,0.0189482289126546,-0.0184833921329408,0.0156520631182948,0.6374794036595781,9.402811593042752,-0.0345773575265009,-0.0062858542813169,0.1312810502898148
276,2760,0.0316983899965387,-0.0276603501706226,0.0445248517089359,-0.0257805480267633,-0.1629542039395921,0.506925939341275,9.329058310969652,-0.0926615848088135,-0.0211670724723917,0.1459952678416091
277,2770,0.0349538809771792,-0.010793997761904,0.0420526565900982,-0.0067462799444007,-0.1396138700784153,0.3245010027285316,9.422080349179405,-0.0556587742630668,-0.0062344764075098,0.1176252771596722
278,2780,0.0313009005771619,0.0003918512048083,0.0181871357950999,-0.0128668645828598,-0.0497062369044694,0.3712838737305341,9.501132079927729,-0.0170199950709491,-0.0246497803267446,0.1517963068403723
279,2790,0.0276523094241838,-0.0347045945994475,0.0508569510986102,0.0023296271325413,0.0078171839396879,0.4058059305990261,9.740556649561842,-0.0659890812378026,-0.0331704522000829,0.1255209431574545
280,2800,0.0350764162826372,-0.0288455471115167,0.0078482325381925,-0.0058066279794207,0.1445610342473113,0.5570574397739048,9.65605282144617,-0.0685467993454086,-0.0212666996625584,0.1189715424962908
281,2810,0.0423462734265271,-0.013402121972588,0.0010915500306395,-0.0234032957311756,0.0689565873132395,0.3915047195003501,9.720014648334187,-0.0615797196223847,-0.004543227382907,0.0937381221306234
282,2820,0.0455955792216652,-0.0271560422231259,0.035866642419721,-0.0069450742589793,-0.1861924909741046,0.4412872560354685,9.049479779033618,-0.0617495737675116,-0.0039685388981047,0.1043969136522031
283,2830,0.0334359997492869,-0.0300032150291349,0.037922793368905,-0.0126052786565099,-0.0964726920308925,0.5409096883745442,9.367763319443908,-0.0765277978689543,0.0019595891492337,0.1400045238192852
284,2840,0.0421394559853748,-0.0252525727924255,0.030658709546776,-0.0047463631343024,-0.0698688397730689,0.3629217719464451,9.230187325751178,-0.0594348025995899,-0.0141219148099097,0.1437924799095059
285,2850,0.0437550453550109,-0.0368108405968016,0.0052386012937213,-0.0183459649085984,-0.1095403756571995,0.549066965294112,9.491035344493223,-0.0901695954115948,-0.0176266269836529,0.1095566161653252
286,2860,0.0366469113746549,-0.042914590507271,0.0156295294483098,-0.0131577388246669,0.0646033605552942,0.5219423280511881,9.52894403325813,-0.087900985501526,0.0005682236801018,0.163997553315153
287,2870,0.0151301359759698,-0.0418075657703348,0.0210308912882747,-0.0343949937919829,-0.1776459511663938,0.3710446766765143,9.627605387513036,-0.0597669173594215,-0.0277954592625301,0.1246235719883938
288,2880,0.0281678839593897,-0.0297828614956956,0.0202935540986898,-0.0216075195748786,-0.1470744927627172,0.634291737463018,9.664693279296497,-0.0684647295663315,-0.0075910241342098,0.1716393339680978
289,2890,0.0138040762189706,-0.0383872965603495,0.0155322208913916,-0.0305766627986729,-0.0248686745827466,0.5216853109799564,9.306829369183417,-0.0742026529938849,0.005277115914716,0.1338246899756157
290,2900,0.0347396287552328,-0.0291919160921101,0.0162526939417289,-0.0294248135506817,0.0043801702091776,0.5069487085549991,9.478147072011076,-0.0376926431019156,-0.0139840291311851,0.1399170005524387
291,2910,0.0102562682972305,-0.03497705082142,0.0116322380723695,-0.0146867653490645,0.001264811566854,0.6221145895062195,9.491193908775822,-0.0852877302975477,-0.0289689500631806,0.166939318815576
292,2920,0.0112606225032326,-0.0193810703135289,0.0098968537645196,-0.0190936246114112,0.0386870000797153,0.5575092458951668,9.358187959899718,-0.0903990863136102,0.0011986629521836,0.1670445485898466
293,2930,0.0316071043462698,-0.0500586598153051,-0.0128210972580354,-0.0409785586961338,-0.0882714427725766,0.5087819880960439,9.505214876323484,-0.0964775111146629,0.0014780632635092,0.1249965978415569
294,2940,0.0141685170718052,-0.0433159326889163,0.0075638437196901,-0.0262603647567198,-0.1455949547328816,0.3308385199816528,9.405193760817124,-0.0718586871404673,-0.0084861938785262,0.076139792988089
295,2950,0.0158577554969599,-0.0360997142976571,-0.0024817992685898,-0.0310385576124131,-0.0903800143569307,0.4469252008734,9.313108236295813,-0.03557217917326,-0.008427997079954,0.1351935277441729
296,2960,0.0220907857745354,-0.0464620833688586,0.0260162571903554,-0.0335038371249491,-0.0607103416182395,0.4426380064088825,9.904122082832028,-0.0834518772529902,-0.0105855977747107,0.1112976599565401
297,2970,0.0318190854743822,-0.0507157964766495,0.0090185985292825,-0.0514516346002446,0.0073606568308873,0.556185618713039,9.236351987940692,-0.0695131950815295,0.0068246506436086,0.1359175375669145
298,2980,0.0190248380702247,-0.0432739392151692,0.0310630523025909,-0.0446030237083407,-0.1531995837032992,0.5231858153877229,9.299677924523282,-0.1100574989111523,0.0025586149833549,0.1200119867969067
299,2990,0.0205756893211934,-0.0428134080648846,0.003769492859165,-0.0396487046652699,-0.0427398197592512,0.4492228128883626,9.001702009522575,-0.0910993858665217,-0.0065069643565588,0.1598510070998994
300,3000,0.0132612950596115,-0.045902614212784,-0.004097295173535,-0.0271317741682206,0.1026738789793522,0.500176538352578,9.337294662467787,-0.0432606925230232,0.0205384983759744,0.1810573747029473
301,3010,-0.0043294265772882,-0.0565934202526475,-0.0205225203400803,-0.0534185129176163,-0.0099489182504656,0.2991950852739392,9.613349728190132,-0.0890704996350879,0.0167690218719595,0.1868568564334529
302,3020,0.0125578030691065,-0.0747015602064972,-0.0119119839751646,-0.0310536615180488,-0.1374769413329507,0.5606446740843471,9.228303540991355,-0.0743868418676369,0.0066680953436897,0.0864927563710121
303,3030,-0.0145191369884759,-0.0437135882232592,-0.0023923728601933,-0.0548870151585041,-0.0279872343787115,0.3188578307131632,9.470922628960135,-0.0642467887593699,0.003138232996467,0.11077776764788
304,3040,0.0065618170676417,-0.0562687238344766,-0.001442027947255,-0.0548972622702644,0.0804768182452196,0.360174168593137,9.215797857091664,-0.1014148863176926,0.0136492520085898,0.0514836433516311
305,3050,-0.0051446138584514,-0.0386403422640769,-0.0086159345006421,-0.037687482375519,-0.0111889097824373,0.3308993452607376,9.448939571072762,-0.0832002604001507,-0.0124513575459463,0.172958470004726
306,3060,0.0070105170687416,-0.0484734808885448,-0.0107930186054142,-0.037631307106525,-0.0427854233180014,0.4108012522249294,9.582834441441218,-0.1186828198520282,0.0135351891626931,0.1445971680489752
307,3070,-0.0145688696427655,-0.0601298555615749,-0.0158199180223619,-0.0420619123012126,-0.2391995184079346,0.5220959169657559,9.6409178564142,-0.0699284862001259,0.0099267996790859,0.1314855465376982
308,3080,0.0025543639020619,-0.0472812797810433,-0.0027408124972343,-0.04471714015251,0.0946577213787144,0.3593124884789924,9.355095305526676,-0.0920585993171699,-0.0009164518510796,0.1020417768668108
309,3090,-0.0218052077920779,-0.075148230562938,-0.035554487933577,-0.0741466295666316,-0.0507533848892779,0.337026664653435,9.44511551585431,-0.1192709478058425,0.009952105870009,0.1660531432471013
310,3100,-0.0107268522662066,-0.0515801490661445,-0.0106165055855169,-0.0482873823596743,0.1061547702658845,0.6825486671859908,9.353901047944928,-0.0510388124289368,-0.0018710618672884,0.1827027099170904
311,3110,0.012149856580498,-0.0576806835459577,-0.0205150248675255,-0.0577475484541868,0.0655434738080695,0.3880137450278103,9.441813616361244,-0.0936913151916535,-0.0056586480868176,0.1616410921536311
312,3120,0.0104051141657574,-0.0576638631698197,-0.0157413059196641,-0.0571005459666663,-0.0213484542184975,0.3384453654288092,9.882871940378095,-0.0936498262533483,0.0028693856061847,0.1423509694676236
313,3130,0.0224583124640369,-0.0546749481223513,-0.0083265382439333,-0.0342992842331242,-0.0243522768861198,0.4272720935459034,9.990509820691202,-0.1044263084911396,-0.0022098577244882,0.1676095651543857
314,3140,-0.0348597551209602,-0.0623670913145469,-0.0082538526466505,-0.0425335236695597,-0.0033056427481057,0.3646778374306645,9.466869860737734,-0.0556570320620014,0.0150830604147536,0.0999412645348719
315,3150,-0.0104549609219796,-0.0600014179813924,-0.0188125818763419,-0.0568323594867368,0.0128664097398164,0.3394198635671658,9.797839647137156,-0.1075740438057027,0.0048137697609319,0.1078209643639075
316,3160,-0.0087420047206226,-0.0667877989385797,0.0146234501542744,-0.0491518656374936,-0.0108818306607475,0.5124469291884891,9.41978472189117,-0.0653691390878019,0.0155296231244302,0.1033417461864808
317,3170,0.0017666298177872,-0.0752542104900792,-0.0049850190510527,-0.0331537348086467,0.0556671667100591,0.2774127664126745,9.330866512040492,-0.0795525459955629,-0.0056153349077226,0.1197875023280252
318,3180,-0.0082982575883774,-0.061690815490064,-0.0071693739130088,-0.0407153192732168,-0.0225074483507815,0.3310120368815708,9.894292405037865,-0.0955167602098988,0.0137825318908932,0.1801764250834647
319,3190,-0.0029358087300285,-0.0327615950191173,0.0067941877502675,-0.0290245567243984,0.0125140194793871,0.443651223791956,9.469711612275098,-0.0671019745411992,6.722190527729682e-05,0.0943180683667326
320,3200,-0.0029658848274818,-0.054293308870148,-0.0148470832033378,-0.0582282837308025,-0.2202746150850723,0.4128517975662588,9.258071903186996,-0.0963285834531491,0.0137041292095153,0.0895260540270275
321,3210,-0.0020398074825611,-0.0388889599277498,0.0053620844913277,-0.0557825495807879,0.1894827037563863,0.4610180617255676,8.935631481986793,-0.0607537475865061,-0.0181014935097818,0.119565081975766
322,3220,0.0030614662191264,-0.0270827063622954,0.0252384612362214,-0.0424330275427769,0.136053271169139,0.3974101370692789,9.378546896590375,-0.1016075171888156,0.0182241303453201,0.1335286241908856
323,3230,0.0254231110368919,-0.0311637267994025,0.0207764172560869,-0.0191049336548553,-0.1889997225700309,0.3812960640474623,9.323849686761925,-0.1107392015097014,0.0036648471967133,0.124990680286522
324,3240,0.0051001443742701,-0.0407756279778334,-0.0135425322927977,-0.0484837066653648,0.0192643113429589,0.3338884543126722,9.449752476453057,-0.0848564504644838,-0.0063106159484905,0.1420257447939097
325,3250,-0.0073325365501903,-0.0303769994052137,0.0122305863981515,-0.022949719453498,-0.1451624081658359,0.267654349260565,9.348585069312408,-0.0932630649033399,0.0153721691718132,0.0760378689815943
326,3260,0.0051653599818497,-0.0232735858147224,-0.0025181010471005,-0.0384632554763196,-0.0300608800628087,0.4642346854525674,9.369081736585734,-0.0658336299668085,0.016976656577781,0.1498753385831737
327,3270,0.0104299041770059,-0.0399151242243919,0.0118424205998871,-0.0411768522591718,0.022542241380237,0.4183750086358377,9.650441975865329,-0.1014385759177275,0.0259568978254323,0.1149423464075266
328,3280,0.01331004613623,-0.0424755888555796,0.0036765867721623,-0.0347742522068204,0.0382295339317805,0.3560326336702508,9.49929585056288,-0.0828671520616342,0.0111538303268122,0.1307126923908275
329,3290,0.0166755183391408,-0.021692069064986,0.0192281650706888,-0.0220361051789617,-0.1386738354122879,0.5831401461737267,9.297966596298329,-0.0988807911699661,0.018031393293194,0.084838348037991
330,3300,0.0127277972533481,-0.0352628003378256,0.0296280184494537,-0.003891316510316,-0.0115340437898577,0.3855900742940809,9.226893808871084,-0.0864610786557627,0.0115164870993173,0.1040549547151075
331,3310,0.0162541716535147,-0.0269606092054775,0.0125570475705416,-0.017247344675026,0.0715257608255771,0.3212457841369168,9.551016189676924,-0.0676107169175847,0.0136581227173237,0.0976329773415446
332,3320,0.0113728933787156,-0.0230835744682111,0.0146575196702953,-0.0090310529505216,0.0893263516838099,0.3330417757744557,9.09589699564122,-0.1347856900846137,0.0232086622997694,0.1086158440987522
333,3330,0.0104951634253744,-0.0489485930146965,-0.0044232573770146,-0.0171664951577161,-0.0706086073876606,0.3496834843373547,9.215104459526206,-0.1421049737989675,0.0246605795207275,0.1514285842808014
334,3340,-0.0029568167901955,-0.0392114278112241,0.003275044465407,-0.040545797360671,-0.0350112226013241,0.4632411673219875,8.95439095154114,-0.0934996451149682,0.0109700016751333,0.1344048932950377
335,3350,0.0380832774708862,-0.0282784038021475,-0.0045881831006172,-0.0213797183001927,0.0516570964394691,0.3577802240703658,9.145139602875096,-0.1101166513979428,0.0001219382856871,0.1844328166340639
336,3360,0.0216008336296414,-0.0450170519297928,0.0078680890776046,-0.0175662666858365,0.1002545415987411,0.184509549941286,9.52918885019132,-0.1224074918316624,0.0185131674252262,0.0967670495856101
337,3370,0.0157768865992804,-0.0325590216611178,0.0053671671498819,-0.0325404044317244,0.0782601262780271,0.2166678781169505,9.123021038284843,-0.1457537878829765,0.0177458780555568,0.1554846691216015
338,3380,0.0216011819003752,-0.0440766936846023,0.0001500395578086,-0.0205311211416101,0.3541842390663155,0.5131132460546781,9.442270384338142,-0.0803196557964419,0.0023766427903594,0.1234456991892906
339,3390,0.0287403738150065,-0.0395677244656571,0.0149364045440648,-0.0140848852939719,0.1046981692520403,0.4244988442193549,9.57905147108409,-0.0839363452347385,0.0009061011285729,0.104920875717815
340,3400,0.0009768169355503,-0.0229232675505731,-0.0130280227708662,-0.022282488111114,0.0832026917317242,0.3482389648465626,9.297811354135495,-0.1196917210714638,0.0316553952238628,0.104435491351628
341,3410,0.0199049850603058,-0.0283004638852494,0.0089338633018634,-0.0193585846674521,0.0572396481004707,0.1875290754565073,9.339369408628825,-0.0718656587572634,0.0140899212716462,0.0849982062132567
342,3420,0.0192165335602819,-0.0414894526982367,0.013573132490335,-0.0143693545435161,0.0585184775213161,0.4804940735865693,9.420394042395154,-0.1218515144285083,0.0163992984660331,0.1266669828049955
343,3430,-0.0053921728564161,-0.0473263371530653,-0.0060878204222339,-0.0521610541541459,0.1558916645463274,0.5323364541194033,9.154527996972858,-0.0632340418718299,0.0205367592755039,0.0651580926205105
344,3440,-0.0021808551664667,-0.0385652358349246,0.0016580945326568,0.00404318533879,0.2355183002248229,0.4150575693787671,8.96818887855036,-0.1320601312015215,0.0178171988626184,0.1025981344680852
345,3450,0.0223219959329289,-0.0335605433512122,0.0014786457629568,-0.023558084100849,-0.0755822939386348,0.3185022746390858,9.51944890219119,-0.1109130619487681,0.0195141592914027,0.1162967339913538
346,3460,0.0007249669903641,-0.0460826417824344,-0.007752788670721,-0.0444319523515343,-0.0139661825927456,0.2583296112845037,9.211776980797728,-0.099046196638875,0.0178231693688131,0.0880199993636579
347,3470,-0.0065548739385221,-0.0279926508663322,-0.0074830233422262,-0.0408199850276991,0.1178438369001681,0.2797801526164423,9.448772023365702,-0.106894165588931,0.0192389368750921,0.0843136151803966
348,3480,0.0139698475413515,-0.0218578320376976,0.0096187799352325,-0.043048268430281,0.2372382981446836,0.3481774944273704,9.539706327057605,-0.0715272455299987,0.0333817498776263,0.1160241978842524
349,3490,0.0229843038657517,-0.0334034371225058,0.0051033729584144,-0.0180117921530994,0.0158792743862644,0.3069410706077078,9.575490387149262,-0.0633336986383259,0.042626511822576,0.0573105403129729
350,3500,0.0060962411024029,-0.0498424836263592,-0.0293619811291394,-0.0259021302585798,-0.0068868895902711,0.2153573173353584,9.008957865890451,-0.1413531905252174,0.0157053251560712,0.0422521132426491
351,3510,-0.0058558798683554,-0.0343802966967168,-0.005643572713109,-0.0393052371241644,0.1523705604742237,0.337563926591936,9.620768078566169,-0.1041417607354619,0.0316878093152246,0.1072671747015828
352,3520,0.0182983560603529,-0.0397315012605455,-0.011415444082833,-0.0349073983705712,0.1051284940106019,0.3603657187443223,9.166059741712973,-0.0939369614524963,0.0029115489858816,0.0556158121592571
353,3530,0.0045301963412283,-0.0361362552430186,0.0115622235785048,-0.0164193348575354,0.165652795168854,0.4184786107578437,9.61150963443557,-0.1141254564571576,0.0152238416078044,0.0988100698250337
354,3540,0.0067823474248965,-0.0478923118676914,-0.0190051640576811,-0.0409838263635512,0.0888958258167157,0.4184985129263351,9.328332041587004,-0.0902615322173707,0.0432496386789233,0.1376529428016424
355,3550,-0.0095875679261247,-0.0476273170645214,-0.0292768519895421,-0.0458436744260361,0.1782632789935938,0.3062655287600561,9.530601698160094,-0.1166642450141265,0.0057200923110849,0.065548047646138
356,3560,-0.0142620688581411,-0.0311383532842137,-0.0108138120692576,-0.0488194656880478,0.24262617386902,0.4423858216601473,9.11889386183022,-0.1133640663671564,0.0243894273804601,0.1304978356394193
357,3570,0.0087768695638478,-0.0160835514456047,0.0173490531776842,-0.0367354976349303,0.233120524305208,0.3486402346571775,9.112960800877133,-0.1073925154102536,0.0181182535238717,0.1289486389226096
358,3580,-0.0049983105299343,-0.0448177388590927,-0.0102629035046285,-0.0551654041089584,0.1146213296945069,0.4596073153769772,8.980020158487397,-0.1048115643620834,0.0253298991215554,0.1059087757670883
359,3590,-0.0006600879661152,-0.0226216696918502,-0.0126470769413822,-0.0361416200245347,0.0270220500371169,0.4016822025131904,9.391063972543217,-0.1019989099664242,0.0341871413526048,0.079512785127968
360,3600,-0.0139485354995399,-0.0377228216326313,-0.0104812311471874,-0.0250481149254005,0.1236670815007684,0.2269371478710939,9.16424192055755,-0.1036560018140839,0.0047895351749635,0.1142768133524176
361,3610,0.0017855354982824,-0.0422587164096143,-0.0083485913367213,-0.0411331501678318,0.2263636132811257,0.0975328918984352,9.537594180535285,-0.1115281259398812,0.0195993259191056,0.1122600941501228
362,3620,-0.0116544824796578,-0.0123086298591781,-0.0042615453531733,-0.0302679286154323,0.1630461882471329,0.4105086271136305,9.435631371775235,-0.0918154752223604,0.0138743474306683,0.0997939541465886
363,3630,0.0041242691887443,-0.0290539568841561,-0.0172498261707923,-0.0295576420483829,0.1300300600311548,0.3062099900161041,9.299717575176372,-0.0962241016971401,0.0244085941067134,0.0390506960732552
364,3640,-0.0154447355615389,-0.0299346875167155,-0.0169235368673391,-0.0377993480404228,0.1233325816834999,0.3797999874196529,9.31451101270227,-0.0910078839710566,0.0308983708455849,0.0802205304426776
365,3650,0.0255758693967642,-0.0241182454757286,0.0218439940860587,-0.0134527573174586,0.0378330020157247,0.2454646281096531,9.221584374783824,-0.1283229032986703,0.0291314055507277,0.1022944570637409
366,3660,0.0001953044949466,-0.0290846821149496,0.0040774187462834,-0.0274820318632028,0.1638329063681217,0.4309086021329974,9.524690618907844,-0.0814530679761498,0.0464601878417423,0.0639056983630054
367,3670,0.0206069780326588,-0.012530414961186,0.0203637173550715,-0.0114093102624138,0.1739922008086585,0.3828891156677091,8.970703596796184,-0.1081108991880086,0.0280222267771375,0.1343514374698324
368,3680,0.0095883053208187,-0.0335416697073464,-0.0092236042283771,-0.0121347608972888,0.1389260236913592,0.255855269201675,9.597870765984768,-0.0973850900494399,0.0256149111473409,0.0829952321859838
369,3690,0.0120922393723926,-0.0196074794650826,-0.0105116548503248,-0.0537106601367375,0.0980693656349632,0.3888072491619802,8.95548645913384,-0.1129285584505545,0.0256341724655831,0.11909514286876
370,3700,0.0103919311599191,-0.0333894268707258,0.0167822836524361,-0.0071574876143206,0.1729941672738291,0.2519227371082956,9.662918264743125,-0.0968532044119747,0.0302433140654603,0.0940829041409731
371,3710,0.0145866083337715,-0.025908000556477,0.0262851513732456,-0.0175285225470784,0.1257516196139511,0.5015808298948038,9.19515696534221,-0.0994681091666117,0.0324084769779666,0.0982055698598112
372,3720,0.0115599127856035,-0.020846645449177,0.0111204588157847,-0.020562815173824,0.1985997532134843,0.380018868812257,9.48087452062797,-0.0912072428214584,0.0210507980239994,0.1061524730995187
373,3730,0.0182943026529506,-0.032058668090125,0.0020331436660031,-0.0305258295493279,0.2921701729472195,0.4068938584170686,9.49752437015941,-0.0734176579290077,0.0295178359268827,0.0833491395235082
374,3740,0.0311014422306012,-0.010627374072021,0.0061933947462,0.0108089012855711,0.1627285367555589,0.1656875103364068,8.936522277069358,-0.0815363541896923,0.0296951145718151,0.0956294995075392
375,3750,0.0291017789278754,-0.0018014237473763,0.0238447770450046,0.0046512629589139,-0.0828330039976944,0.1704159437290605,9.51682414791848,-0.0910942320854555,0.0302648889912237,0.1173546875227025
376,3760,0.0376057043429932,0.0002336515006951,0.0198228160805647,0.0006830461574153,0.0998005878082682,0.3512105264603522,9.513694532028495,-0.1038610493788319,0.0181471280413374,0.095165215018276
377,3770,0.0151949288631731,-0.0124741232284279,0.0301834696982931,0.0192062167307881,0.0849605003834187,0.4391548603107643,9.277695781358242,-0.0878891100598187,0.0339520445795945,0.0840940004313518
378,3780,0.0089159620165455,-0.0036717723525277,0.0190447278413505,-0.0199524107873963,0.1506275854040603,0.2335852846469484,9.655654331578637,-0.0785632377266655,0.0205671644568614,0.1138492181692787
379,3790,0.0180047920233297,-0.015402489779474,0.0193758969439682,-0.0152098579715071,0.1741709992587319,0.2585376960022399,9.511936941912444,-0.1108397349581982,0.0382328242736906,0.0624795707607879
380,3800,0.0279910581563947,0.0019745496180747,0.0200230600102816,-0.0180180004900935,0.2659885212842362,0.1939726722704794,9.321095282379904,-0.091477702571693,0.0345583661650439,0.0893316165550679
381,3810,0.0226582750318644,0.009899937883456,0.0273567953697751,-0.003880166033694,0.3499537776429541,0.2274646882670923,9.283552132118176,-0.1056962053480048,0.0279025372324602,0.043383139344725
382,3820,0.0353527357463613,0.017287369036285,0.0223562742979362,0.0043612449358226,-0.004868429016275,0.1605603684373875,9.269244321638638,-0.0815657803040798,0.0412013748937825,0.1051121925566724
383,3830,0.0271640109181879,4.89331789477656e-05,0.0115315159135623,0.0036816332723715,0.1817285944119454,0.3779934064636415,9.324742025268696,-0.1036435608938175,0.0133824581336823,0.0960596630410013
384,3840,0.0386623716507257,0.0094140104275346,0.0359658305617044,0.0015312529313537,0.0819373394021611,0.2556567572804155,9.267911733481387,-0.1228522899919954,0.0294054366255086,0.0749895107154613
385,3850,0.0262927600402257,-0.0179693044411724,0.0110634298067038,-0.0100681046600523,0.2371705497416901,0.2028602110923718,9.70419151532605,-0.069755470040483,0.0296302196815844,0.122828337946338
386,3860,0.0262064676114103,-0.0101704959799147,0.031317728879677,-0.007578056467817,0.4178468100264572,0.3240844563148629,9.504374280653153,-0.1327968691335067,0.025032339979855,0.0914556732594926
387,3870,0.0262064676114103,-0.0101704959799147,0.031317728879677,-0.007578056467817,0.4178468100264572,0.3240844563148629,9.504374280653153,-0.1327968691335067,0.025032339979855,0.0914556732594926
388,3880,0.026645108204013265,-0.00899503867782982,0.03049041904568643,-0.005634253523143763,0.38276400028082525,0.31121239598705136,9.5142403800629,-0.12872189621801913,0.02216905706889216,0.08676098253793964
389,3890,0.02708374879661623,-0.007819581375744941,0.029663109211695862,-0.0036904505784705263,0.34768119053519325,0.2983403356592399,9.524106479472644,-0.12464692330253159,0.019305774157929313,0.08206629181638667
390,3900,0.02752238938921919,-0.006644124073660063,0.028835799377705296,-0.0017466476337972894,0.3125983807895613,0.2854682753314284,9.533972578882391,-0.12057195038704403,0.01644249124696647,0.07737160109483371
391,3910,0.027961029981822153,-0.005468666771575184,0.028008489543714727,0.00019715531087594745,0.2775155710439293,0.2725962150036169,9.543838678292138,-0.11649697747155648,0.01357920833600363,0.07267691037328075
392,3920,0.028399670574425117,-0.004293209469490304,0.027181179709724158,0.0021409582555491843,0.24243276129829738,0.2597241546758054,9.553704777701883,-0.11242200455606893,0.010715925425040788,0.06798221965172778
393,3930,0.02883831116702808,-0.003117752167405426,0.026353869875733592,0.004084761200222421,0.20734995155266545,0.2468520943479939,9.56357087711163,-0.10834703164058138,0.007852642514077943,0.06328752893017482
394,3940,0.029276951759631045,-0.0019422948653205468,0.025526560041743022,0.006028564144895658,0.17226714180703348,0.23398003402018241,9.573436976521377,-0.10427205872509382,0.004989359603115102,0.05859283820862186
395,3950,0.029715592352234005,-0.0007668375632356676,0.024699250207752453,0.007972367089568895,0.13718433206140151,0.22110797369237092,9.583303075931122,-0.10019708580960626,0.00212607669215226,0.05389814748706889
396,3960,0.03015423294483697,0.00040861973884921167,0.023871940373761884,0.009916170034242132,0.10210152231576958,0.20823591336455943,9.593169175340869,-0.09612211289411872,-0.0007372062188105814,0.04920345676551593
397,3970,0.030592873537439932,0.001584077040934091,0.023044630539771314,0.011859972978915369,0.06701871257013758,0.19536385303674794,9.603035274750615,-0.09204713997863116,-0.003600489129773423,0.04450876604396296
398,3980,0.031031514130042896,0.00275953434301897,0.02221732070578075,0.013803775923588606,0.031935902824505646,0.18249179270893645,9.612901374160362,-0.08797216706314362,-0.006463772040736265,0.039814075322410006
399,3990,0.03147015472264586,0.003934991645103848,0.02139001087179018,0.015747578868261843,-0.0031469069211262912,0.16961973238112493,9.622767473570107,-0.08389719414765606,-0.009327054951699113,0.03511938460085704
400,4000,0.031908795315248824,0.005110448947188727,0.02056270103779961,0.01769138181293508,-0.038229716666758284,0.15674767205331344,9.632633572979854,-0.0798222212321685,-0.012190337862661955,0.030424693879304077
401,4010,0.03234743590785179,0.006285906249273606,0.019735391203809044,0.019635184757608316,-0.07331252641239022,0.14387561172550195,9.6424996723896,-0.07574724831668095,-0.015053620773624796,0.02573000315775112
402,4020,0.032786076500454744,0.007461363551358485,0.018908081369818475,0.021578987702281553,-0.10839533615802222,0.13100355139769046,9.652365771799346,-0.07167227540119339,-0.017916903684587638,0.021035312436198148
403,4030,0.03322471709305771,0.008636820853443365,0.018080771535827905,0.02352279064695479,-0.14347814590365415,0.11813149106987897,9.662231871209093,-0.06759730248570585,-0.02078018659555048,0.01634062171464519
404,4040,0.03366335768566067,0.009812278155528244,0.017253461701837336,0.025466593591628027,-0.1785609556492861,0.10525943074206748,9.67209797061884,-0.06352232957021829,-0.02364346950651332,0.011645930993092232
405,4050,0.034101998278263636,0.010987735457613123,0.016426151867846767,0.027410396536301264,-0.21364376539491803,0.09238737041425599,9.681964070028585,-0.05944735665473075,-0.026506752417476163,0.006951240271539261
406,4060,0.0345406388708666,0.012163192759698,0.0155988420338562,0.0293541994809745,-0.2487265751405501,0.0795153100864445,9.691830169438331,-0.0553723837392432,-0.029370035328439,0.0022565495499863
407,4070,0.0345406388708666,0.012163192759698,0.0155988420338562,0.0293541994809745,-0.2487265751405501,0.0795153100864445,9.691830169438331,-0.0553723837392432,-0.029370035328439,0.0022565495499863
408,4080,0.0476651758682863,0.0304139807635925,0.0336637803538187,0.0303296415214692,-0.4437684010361697,0.1461007476492448,10.062574711922473,-0.0911260833075384,-0.0419014222867568,-0.0085698790954578
409,4090,0.0376074228275749,0.028779970440837,0.0231101715335827,0.0333802712190331,-0.2371989900735673,0.095025689883426,9.699183939935155,-0.0111268016789588,-0.0514984985376548,-0.0132081163858206
410,4100,0.0003336167798325,0.0324608615260652,0.0175722204002422,0.024061480421291,-0.2316304742251322,0.1721083198120762,9.300299805225986,-0.0455028968374476,-0.0421462177788159,0.0448396185021787
411,4110,0.0276275842742693,0.0272183018378994,-0.001073216925286,-0.0072329914650205,-0.4568469372396735,0.0484099207356522,9.601320015148966,-0.065758966026815,-0.0503835317098905,0.0035456504957538
412,4120,0.0493219764177252,0.0116068377176001,0.0319117582934271,0.011663997797482,-0.2978644147397244,0.2134598714428554,9.64047861665617,-0.0223252103103966,-0.0306866559053012,0.0104826061121369
413,4130,0.0434591202642863,0.0079946516255984,0.0511326362619937,0.0177669091847698,-0.2904919389668801,0.0949252094222699,9.578181336853222,-0.0547400099924267,-0.0431940255929262,0.0143999179124361
414,4140,0.0329991036623343,0.0124442779796653,0.0245725314406482,0.0143860372935197,-0.3609668643419149,0.1409180835924406,9.632770263761032,-0.0285097397272736,-0.0609696067307149,0.0505814869036496
415,4150,0.0377784913892305,0.0132727438873905,0.0216236749427875,0.0307606630870244,-0.2370680066831535,-0.0483260009317879,9.461753577141252,-0.0013121067500451,-0.0434541191811573,0.0009360426886322
416,4160,0.0105859699303589,0.0048582739686792,0.0259543546592657,0.0098256208049474,-0.3955267259010075,0.1358176896589829,9.714059094953482,-0.0086951353786189,-0.0561733127999475,0.0417933925735146
417,4170,0.029681950924089,0.021060682066242,0.0153742600012913,0.0236792918294748,-0.2257249788680226,-0.0162778302651256,9.540411566075704,-0.0237411065817705,-0.0435563725126686,0.014186392444034
418,4180,0.0284614908722241,0.0174166576669974,0.0114843216667267,0.0124917511704931,-0.3832292825637778,-0.009133373904116,9.42742394629567,-0.0001855464184271,-0.0505446546297775,0.0058399497236296
419,4190,0.0069977692730834,-0.0030478854684936,0.0055482766921149,-0.0066430335337382,-0.2939588473438486,0.032786498938474,9.479043413579546,-0.0250198693844938,-0.0392920761429365,0.0180868575631286
420,4200,0.0080846866437176,-0.0013744537981507,0.0067282910398593,-0.0049967764594934,-0.2423987641957082,0.1669453102887713,9.441730678192645,-0.028695945454976,-0.0482398608889167,0.0255414160020148
421,4210,0.0008033497982529,0.0038661732856575,0.0087436703681858,0.0057209527669375,-0.2529151753793381,0.0746769291966933,9.794718404052528,-0.0502104448544974,-0.051607666695195,0.0272131655517961
422,4220,0.0470196370526427,0.0097418936943941,0.0184455254061134,0.0296046945112278,-0.2972919881728742,0.084613897305168,9.571219947608515,-0.0299369377018424,-0.0385705463312536,0.0383876268527537
423,4230,0.0093314730453273,0.0044327045374611,0.0089142945224773,-0.0001253407878709,-0.3276233001776126,-0.0327267628947368,9.641787553929593,-0.0549715777381939,-0.0391100741458498,0.0077233646744277
424,4240,0.0145635292297777,0.015345167552719,0.0228377166721087,-0.0022917700734837,-0.1704654061403437,-0.0482465117765803,9.359853218781383,-0.0131141571480746,-0.0473569462129068,0.0033183211494977
425,4250,-0.0022289804647011,0.0090096980890041,-0.0003592273254476,0.0142340510200629,-0.1191016792732961,0.05236414389755,9.84587521974935,-0.0037661766527068,-0.0588426731906093,-0.0368678700584332
426,4260,-0.008439785548809,-0.0077076634253685,-0.0014465120882407,0.0024490729597878,-0.2987328838042865,-0.0011535796413934,9.30362743005352,-0.0256771320775254,-0.0394793468664871,-0.0043347643400918
427,4270,0.0048980939747901,0.0007931896433658,0.0128061140905963,0.0017958454783998,-0.4054967816414841,0.0129890270134055,9.69847928723108,-0.0414648535425561,-0.051368287201062,-0.0041342482676495
428,4280,0.0017518930085829,0.0028825704491085,0.0103527074861881,0.0006217458247318,-0.3772883423669669,0.1574243812502095,9.57638332795026,-0.0230299286157231,-0.0482128911420602,0.0076718584887334
429,4290,0.0199699572198787,0.0118752414188748,0.0241989675101187,0.0064188688619236,-0.3006246463147871,0.0584301477435504,9.790640294799404,-0.012963480395064,-0.0589480584935715,-0.0030995632004177
430,4300,0.0065711871951226,-0.0158784379107948,0.0014054711132537,-0.0173900572658982,-0.2448920056917541,0.0111870406692148,9.703290093374797,0.0192675054165515,-0.0456422730335241,0.0059201449947664
431,4310,-0.0237924199505203,-0.0254265525939646,-0.005724855634616,-0.0011976307323721,-0.3912076338726276,0.0701978337703489,9.990024582775971,-0.011615601225735,-0.0562654656783431,0.0282237884683307
432,4320,0.025693195858516,-0.0130629910756001,0.0176420563568021,-0.009771335858724,-0.2358744037860038,-0.0403312315432624,9.934739805990644,-0.0496393894599709,-0.0580337836804002,0.0450354355190613
433,4330,0.0066205319568818,-0.0094685498762998,0.0115231685773133,0.0109871298947555,-0.4321362568650693,0.0508962648675041,9.573917973653716,-0.0186978683142595,-0.0386789039695788,0.0231899490073177
434,4340,0.0012623183123323,-0.0151493668511736,0.0028624677349323,-0.0112404209900332,-0.4015654117054151,0.1150979375070859,10.082949100846111,0.0206925112145276,-0.041173683536388,0.025288262899269
435,4350,-0.0007876391904104,-0.0161728039493578,-0.0180992071650021,-0.0017027448057061,-0.186410524661549,-0.0282516383383956,9.87683618658849,-0.001469769997566,-0.0525067680677772,0.0016024789638201
436,4360,0.0119943482405625,0.0012123967528519,-0.0075938380977203,0.0030506707953703,-0.2617400733268078,-0.0253183092930194,9.751992018907996,0.0326015725757161,-0.036610407295635,0.0164203066259587
437,4370,-0.0118377135902419,0.0003399856276442,-0.0053633216927528,0.023373585100096,-0.3517283456027363,-0.0606854673961945,10.05049578063452,-0.0152727073744552,-0.0581515636896911,0.0006978554959993
438,4380,-0.0148411880086395,0.0084678535738197,-0.0011258981749327,0.0005445902061251,-0.2873105593213052,0.0771269800997291,9.65255143627556,-0.0212666166743705,-0.0511789814615765,0.0097645096936437
439,4390,-0.0243855870595316,-0.0052440575239441,-0.0051933123120312,0.0030035238530966,-0.1285612438102086,0.1799884197191882,9.71519628200523,-0.0128697629271776,-0.0479133825093334,0.0059110243027675
440,4400,0.0108667782676563,0.0040369679405868,0.0020596320588491,0.016131126116591,-0.1544803872497833,-0.1027064541970117,9.684187826779992,-0.0239916000081113,-0.0325454049802668,-0.00312416723142
441,4410,-0.0078792673412004,0.0211119442998391,-0.0096836740648991,-0.0089342455827308,-0.4223042111267164,0.0270709968897363,9.672332119708928,-0.0256453206873769,-0.0294906696463098,0.0223783859059629
442,4420,-0.0022936741122047,-0.0043424669570693,0.0142188049023307,0.0025255877076599,-0.1348798087795802,0.156817165255948,9.951374391031292,0.0039025086380636,-0.0555713905326277,-0.0332769937993522
443,4430,0.0030478562322517,-0.0073717505921875,-0.0110442048290954,-0.002036021046568,-0.3996196330761901,-0.0192305123602073,9.772517184811576,0.0189818363644945,-0.0611478113362572,-0.0292185006330172
444,4440,-0.0055838921942267,0.0220218372749429,-0.0177270889394684,0.0219088094731405,-0.4495428833305587,0.0070004066235955,9.523551755887262,-0.0013464726849357,-0.059966867536366,-0.0036582932232968
445,4450,0.0069865080437956,0.0118333666918703,0.0138176339097357,0.0238082465458365,-0.18974383055789,0.0623295735312676,9.660180959698769,0.0127799381237167,-0.04306677059012,0.035748070789019
446,4460,0.0066561607324714,-0.0013850957351401,0.0013332406212271,0.0157646575734901,-0.2775561673596201,-0.0654407285155574,10.228328145589224,-0.0038907923331829,-0.043707819042223,0.0702452098606717
447,4470,0.0043106754377809,0.0058439228412703,0.0048474537087126,-0.0201426772400899,-0.3289613604748901,0.0031614161105274,9.914285074602164,0.0257147785713018,-0.0565787589180919,-0.0104874093779405
448,4480,-0.0011136054648744,-0.0040610293006519,-0.0005016876560093,0.0029115523268709,-0.230101281058592,-0.1963906119255448,9.70794632572022,0.0117428696233942,-0.0462318683385101,-0.0184346719355889
449,4490,0.0068236632818037,-0.0136024875015807,0.0019264260267513,-0.0046764114087434,-0.260803198621378,-0.0676713952303052,9.876749880162112,-0.0011816524939549,-0.0532020311526184,-0.0243246918200996
450,4500,0.005069674703388,-0.0113260644559654,-0.0023390048581366,0.0114518460772743,-0.5385752362972204,0.0094400198364581,10.400027872021797,0.0174699841955098,-0.0659054887745178,0.0001734976563058
451,4510,0.0094522152060557,0.0109512391520041,0.0103397214689468,-0.0109470634007598,-0.1691558206720884,-0.022143205816718,9.913892944710438,-0.0197063622010432,-0.0518402733747197,-0.0118363191854958
452,4520,0.0074648447298755,0.0158465974130912,0.0107797481976924,0.0115625724716611,-0.3021119659529477,0.0326088608522054,9.526778310314272,0.0310942788452762,-0.0480708720355898,-0.0143718701404388
453,4530,-0.0010577636547951,-0.0071258084795309,-0.0276866661901306,-0.0030229021426811,-0.3471067408717447,0.0543555173674994,10.131606962094056,0.0234000893673873,-0.0407598032131819,-0.0261284731588375
454,4540,-0.0081539606440271,0.0162783442033954,-0.0248046661381204,-0.0088580406070381,-0.0879886467120522,0.0705100359280423,9.726975466979072,0.0147873363492619,-0.0574511435719007,-0.05070739765654
455,4550,0.0003670316938723,0.0015809255039491,0.0096933318181119,0.0239655887567018,-0.3961585696527042,-0.0669719729167913,9.654133755887838,0.0059773354217975,-0.0506521990170079,-0.0094358827908025
456,4560,-0.0029258493511736,-0.0037671268946612,0.0052554637531569,-0.0045550096004247,-0.1932728644964068,-0.0575128983212976,9.792255587619724,0.0134990500982794,-0.0635176938984352,0.0070108431792063
457,4570,-0.0067210018254439,0.014055027683383,0.0146095820153905,0.0018737635113648,-0.39501939800318,-0.0743236104536357,10.088059462233971,0.0236058246484904,-0.0460545519479359,0.0107074342532404
458,4580,0.0143814697258744,-0.001369309419898,0.0218734431747472,0.0138806498988847,-0.144863167001468,-0.0481415630071272,9.69442263316935,0.0146875174468051,-0.0499916845259917,-0.0226569561605703
459,4590,0.0063263422478036,0.0150875053568415,0.0063908752157196,0.0157868840345141,-0.4724092298789697,0.0162494431177609,10.080169200777735,0.0409928667973494,-0.0382249880141999,0.0108249091645549
460,4600,-0.0157656542273546,0.0212996672749262,-0.0134346202060662,0.0064467683077074,-0.3995497875508376,0.1099812331592337,9.835758308023175,0.002017146100395,-0.040752043161485,-0.0131061769781227
461,4610,-0.0009184419741711,0.0128855255142479,-0.0142492472123267,-0.0056483034600864,-0.4313351467817502,-0.0257560689360252,9.784209174502486,-0.0256107681635758,-0.0402237549778851,-0.0241565725021843
462,4620,-0.0178085555632191,0.0053758348809308,-0.0042427554132115,0.0196088573789892,-0.3179596609929218,-0.0876713739512076,9.94502063583565,0.015540533864357,-0.0537781097040328,-0.0256846641759073
463,4630,-0.0275639677777046,0.0102728600352166,-0.004052789388082,-0.0035749684903682,-0.0977292610328866,-0.0604021158634526,9.57302371685082,0.0377352272606199,-0.0531965119475253,-0.0295643917513804
464,4640,-0.0128907984642871,-0.0263418537757314,-0.0072776545180801,-0.0151718778373598,-0.2325967516871637,-0.1070826825459361,9.512491920856895,0.0267289745766206,-0.0503274343634884,-0.0441239294768452
465,4650,-0.0192780370994474,0.0104560495095349,-0.0136428902530154,-0.0042964717622177,-0.258118210825806,-0.0677904788208207,10.262405757649312,0.0100074415553637,-0.0544891161384508,-0.0552866329494483
466,4660,-0.0160769114610685,0.0058808843147969,-0.0245637551962511,-0.0162118983779361,-0.3493671288361465,0.0495070703334217,10.070788657543392,0.0071348317337159,-0.0478993799572616,-0.0116366433067794
467,4670,-0.0231912058919234,-0.0198345653031669,-0.0372846792235562,-0.0077132314738743,-0.3173605016111376,-0.1255382579698623,10.048811092776388,0.0141541388255301,-0.0492860092765895,0.0032407722360992
468,4680,-0.0130229363299725,-0.0172838733834595,-0.024461855689779,-0.0181702768983817,-0.1528868625422236,0.0757363234573683,10.37869381808044,0.0566788231414367,-0.048944065163876,0.0093343996824706
469,4690,-0.040092823510821,-0.0187807856631521,-0.0206700973499305,-0.00742936939442,-0.1758781736172144,0.0369194861545463,10.35343092601441,0.0719349926229053,-0.0584160316578206,0.0021754506235856
470,4700,-0.0332544733310744,0.0057112064273848,-0.0384873647732529,-0.0191171483473656,-0.3118189448810065,0.0559185868429553,10.080358516251628,0.0347558619378669,-0.035372489193151,-0.0521791505523251
471,4710,-0.0169462513822786,-0.0003204818726582,-0.0047295430049226,0.0129898523669366,-0.3286461586101504,-0.0424253362685186,10.029768594876804,0.010294284071402,-0.0566736001854213,-0.0236543043471901
472,4720,-0.0090712937270026,-0.0169393151225806,-0.0207920888341559,-0.0080871883298972,-0.1900023826391205,-0.1856649181864405,10.192605612141614,0.0520081378703042,-0.0468390343322743,-0.041427787991835
473,4730,-0.0145570975189044,-0.0295676765176111,0.0053014251519645,-0.0084329155670313,-0.2372979853798666,-0.1277997632725243,10.12551762198956,0.0445799479439091,-0.0579637565267967,-0.0030844180936665
474,4740,-0.0370524515039476,-0.0096473203980271,-0.0291697711251801,-0.0214528709940391,-0.2538754130066574,-0.0016915313714357,9.883117039460569,0.0687821206705949,-0.0601340848041122,-0.0237110802777599
475,4750,-0.0193250616158341,-0.007805126671812,-0.028004878808763,-0.0184524998278644,-0.2449336164339126,-0.0517903967382107,10.034381209801944,0.0540286773243656,-0.0531360729264967,-0.0436628843414652
476,4760,-0.0390890149339277,-0.0052168696211744,-0.0314640020000842,-0.011510003580846,-0.345643348932395,0.0288920837239268,9.944590239913476,0.0283541141748921,-0.0348356029361605,-0.0620566353507027
477,4770,-0.0146193290800845,-0.0370983369848384,-0.0355201522687069,-0.0397703125602767,-0.2533839274993045,-0.1804244603430954,9.652077333245073,0.0546833523513876,-0.057069682470361,-0.0216490743387919
478,4780,-0.0212833285142736,0.0133447653891343,-0.0185326199013794,-0.0163318278239439,-0.3653249960897044,0.0073503444011635,10.13649806593098,0.0562899529328393,-0.0431275451983827,-0.0260949858128795
479,4790,-0.0065491727347834,-0.0152163117495949,-0.0106514807229332,-0.021249983153099,-0.1841539822536484,-0.1330062048969121,10.006152318493514,0.0607850606475246,-0.0655912995170245,-0.0617854546272701
480,4800,-0.0321174248233773,-0.0231370987439789,-0.0420706068035475,-0.0229451569827054,-0.3159576560453819,0.0266914029473564,10.49061293775266,0.0496361606592705,-0.0406819947755256,-0.0446038615021116
481,4810,-0.0355262089316258,-0.0069721617643253,-0.0363616497110582,-0.0161929407699387,-0.1992674988100213,-0.0529925156005666,10.021840808516982,0.0358179047110998,-0.0421999221255003,0.0045169434666281
482,4820,-0.0378090336457224,-0.0138830870410211,-0.0298847385405093,-0.0333526924100766,-0.2857129802849868,-0.1620561721499637,10.207912157411013,0.0461797651301956,-0.0436960677312345,-0.0246577903156823
483,4830,-0.0208545089524782,-0.0030302712495112,-0.0305885891452752,-0.0117680985990263,-0.3496246823316991,-0.0629472550926964,10.293676665153976,0.044535068861783,-0.0440087031511924,-0.0214433097328325
484,4840,-0.0225431313280221,-0.0170123565782658,-0.009513896997194,-0.0194100510781442,-0.1552822068134376,-0.1063746719829672,10.006353216038146,0.0319886249386848,-0.0572850019986232,-0.0440963055381977
485,4850,-0.0567381686466802,-0.0244120537112288,-0.0411351057529586,-0.0328221811705049,-0.3244819740696287,-0.1630271436696024,10.06432135382966,0.0723281334987601,-0.0515410039106545,-0.0048255205627854
486,4860,-0.0194110840128304,-0.0033722926709985,-0.0176582322809787,-0.0135713344506137,-0.2974248941872387,-0.0701045753474714,9.92679470317322,0.0346367698418266,-0.0478734975159386,-0.0038890998942639
487,4870,-0.0434461999270549,0.0027935160135463,-0.0358418198783751,-0.0204895009983369,-0.2109471111487811,-0.1212635299439194,10.08873807230566,0.0668871409925762,-0.0380627224079527,-0.0357066996305154
488,4880,-0.0457474440833184,-0.014450286125996,-0.0244108919916596,-0.0101072611377196,-0.3408192008510666,-0.0791165145943845,10.088063182713304,0.0909057902018621,-0.0473706115882506,-0.0455336109125321
489,4890,-0.0480924828430815,-0.0120296879924596,-0.0364362578526445,-0.0192799215204881,-0.2620502122887474,-0.1842515246696926,10.419136955144728,0.072657802374657,-0.041040882402199,-0.0643504906513198
490,4900,-0.0204800761318765,-0.0037622097390078,-0.0365242172405408,-0.0142447730839895,-0.3581459209062587,-0.1776537051456374,10.415189667118886,0.0312339759179397,-0.0455605260623791,-0.0656855742085327
491,4910,-0.0373742129455956,-0.006122376888856,-0.0273085348746881,-0.0094212103852411,-0.2716893458467397,0.0591833077745402,10.209344087989203,0.0820862694572029,-0.0608192806542927,-0.0579345947702655
492,4920,-0.0211459271977944,0.0026061378799257,0.0024624594212049,0.0029033365679329,-0.1980183520525741,-0.028035215008715,9.99471616646021,0.0724509457034888,-0.028127040543749,-0.0549429203455602
493,4930,-0.0264186919879086,-0.0212737861694473,-0.0410943257875206,-0.0139633672248785,-0.3086185211628323,-0.1736031006740059,9.77002060424728,0.0642267321421388,-0.0601482622558035,-0.0387711072094408
494,4940,-0.0322299362087595,-0.0017966718158465,-0.0040458170942134,-0.0086061199038271,-0.0019034746572204,-0.1302295482352345,10.302969675361345,0.069860840102334,-0.0492523403385351,-0.0155485595161382
495,4950,-0.0273044500782366,-0.0078629720620292,-0.0212236134932342,-0.0210518249800467,-0.2136466514446984,-0.2850047400164462,10.23569079549044,0.0583606657764147,-0.0447521783319762,-0.0221121793176897
496,4960,-0.0472523150232255,-0.0018661598096679,-0.0178945851307172,0.0117366823153472,-0.3244765016582639,-0.1539851839976786,10.273775797506993,0.0757707413698671,-0.0427095100262392,-0.0298802013587744
497,4970,-0.0389718382150605,-0.0045754138122375,-0.0281404596122183,-0.0122625297859398,-0.2605515370639661,-0.2000322741226993,10.020108412877056,0.06929376953054,-0.0425688346103338,-0.0074252779748362
498,4980,-0.0332061263312004,0.0213958032754222,-0.0027581591471541,-0.0009789301483703,-0.5217599121022105,-0.1688381255316236,10.553229406655,0.0769089624208671,-0.0369835622642504,-0.0662856343815419
499,4990,-0.0301584569648081,0.0070472121220308,-0.0261993104158937,0.0041168909586721,-0.1519197320410494,-0.0892065399518378,10.28348621017526,0.0229028297788643,-0.0472628534847562,-0.0637497661144187
500,5000,-0.0333190777335584,0.0141260095182766,-0.0203640264393146,-0.0139784150691324,-0.2279768452983527,-0.0970114021395437,9.968491383898384,0.070294407885723,-0.0584172686969886,-0.0428972992797124
501,5010,-0.0341830302727204,0.0092805954260272,-0.0332076576134306,-0.002906618396914,-0.3039056455890178,-0.2210983590577669,10.17350594546313,0.0596797837949435,-0.0674787321520835,-0.0448191980286242
502,5020,-0.0366990508579971,0.0231632598149036,-0.0254020136619778,0.0070113853330253,-0.3437315357508342,-0.2969587492049645,10.063248654167982,0.0542032474045133,-0.056232740351806,0.0279942005923089
503,5030,-0.0289371389941736,-0.0006593832977333,-0.0429355165907137,-0.0089032806853829,-0.1697484036754192,-0.1089925725657483,10.08666400476963,0.0431981448246385,-0.0326341175693223,-0.0574565022408979
504,5040,-0.0119607211639115,0.0020158383248109,-0.0204215956972817,0.0131738396428748,-0.3869930374513656,0.0274364749703348,10.343619460816043,0.0809575570299064,-0.0484874929050643,-0.0261534103810741
505,5050,-0.0360157312061564,0.0010969353749641,-0.0200559715618033,0.003671795150065,-0.1877461395409997,-0.1695267241477465,10.377089860790733,0.057021001066328,-0.0199978384514817,-0.0420777847956076
506,5060,-0.0222530747670482,0.0023572766935523,-0.0067010490678606,0.0148494448339409,-0.2701054685793272,-0.3256771751131724,10.240918942702391,0.0492998050844034,-0.0403497334774707,-0.050901129793202
507,5070,-0.0275621141487934,0.0249097861028778,-0.0351560209687837,0.0170315078979785,-0.1905499878442758,-0.1923159161487166,10.05648566445233,0.0635910196980679,-0.051311909893257,-0.0458320991978391
508,5080,-0.0222995144311515,0.0007957201290169,0.0027977107891777,-0.007013586589501,-0.1838054789983308,-0.1090812189365621,10.423656468650975,0.0315010754925556,-0.0508646937182515,-0.0364132878286986
509,5090,-0.0242508168492427,-0.0068882474926631,-0.012950775153509,-0.0013474689514193,-0.3800956454578997,-0.1499637465563466,9.927597870833704,0.0903737583737407,-0.0490401667271649,-0.0493866397944925
510,5100,0.0008171165557383,0.0303603359395937,-0.0148915176370896,0.0090825014523515,-0.2658970789601507,-0.114379268904572,9.849751373058734,0.0752051733320235,-0.0383749557624613,-0.0665133719865233
511,5110,-0.0169606028304487,0.0178589978149596,-0.0242854974428237,-0.0095666684454771,-0.0972588442973346,-0.0819401044662145,10.625478910327733,0.0527896210766885,-0.0524405582001523,-0.0511197516969953
512,5120,-0.0402413978282044,-0.0083001956179962,-0.0232532614984619,-0.0097629033129446,-0.1799684246731187,-0.1588084094476846,10.198819354716596,0.0731235539437975,-0.0470427809412732,-0.050207942095744
513,5130,-0.0109853903004361,0.0178881681854986,-0.0191158378322969,-0.0077166887288898,-0.2723435482121115,-0.0522024491845301,10.55000761484874,0.1266239622332406,-0.0464886767498031,-0.0180197020117609
514,5140,-0.0409728890023012,0.0075255920089667,-0.0264581199211823,-0.0122914554433656,-0.3988754892037046,-0.2383258771333773,10.05196260655509,0.0398922781659206,-0.047970416853253,-0.0604296543302568
515,5150,-0.0179292070063361,0.0162615457618954,-0.0294255265277621,0.009802464924987,-0.136140009360372,-0.1360107074497437,10.067517737273624,0.0755894742955787,-0.0474680845561515,-0.0516851664247586
516,5160,-0.0287302461557285,0.022437646241635,-0.0173739559630991,0.0056016298215217,-0.1130361804123899,-0.4238476638940611,10.438655917379643,0.0432815427486283,-0.0462067368088401,-0.0386410784211118
517,5170,-0.0297226529095499,0.0184601504626317,-0.0260048044370282,-0.0037893215815276,-0.2287405560609653,-0.1272114162191811,9.89154682354016,0.0459280259007918,-0.0350607106229928,-0.0453011768347658
518,5180,-0.0391879549694738,0.0254358632023872,-0.009361963647469,0.0196298795573016,-0.189420422318624,-0.2404922473313323,10.4038509148451,0.1016649256062341,-0.0279334800757096,-0.0640006814001778
519,5190,-0.041850279475992,0.0065914401651238,-0.0213663244793985,-0.0092771905198835,-0.3356603564371548,-0.2233223267153774,9.812961486771057,0.0914465068281004,-0.0524748844810034,-0.0255850436350823
520,5200,-0.0334508566363606,0.001207940446087,-0.0444134015398612,-0.0064940802685897,-0.1544335466005297,-0.1989647956834297,10.076947377271331,0.0745341661439859,-0.0420446225611611,-0.0548889402362811
521,5210,-0.0473157217091752,-0.0092258189522306,-0.0397250218119176,-0.0171000942628717,-0.1919740492175563,-0.2005550644141177,10.50381819799918,0.0527011307940698,-0.0382839438135479,-0.0372864134591167
522,5220,-0.0173150112648053,-0.0044215060058093,-0.0135546931412842,0.0053771637749557,-0.3612620236510828,-0.2275963586576246,10.53340755954066,0.0986975503516781,-0.0550887999434344,-0.050518378714445
523,5230,-0.0283811906178741,-0.0068259336243244,-0.0433420978001625,-0.008424972865264,-0.1021935972210153,-0.1855587991211296,10.17858288290604,0.1167138897873986,-0.0353800958442084,-0.0345476799579966
524,5240,-0.041061484111044,-0.021530094691424,-0.048539699206323,-0.006364501889926,-0.1646391538261045,-0.1654227083029347,10.429138086864066,0.118059438529714,-0.0251430673812037,-0.0609105629767332
525,5250,-0.0467723696994872,0.0073499308108533,-0.0224839771621103,-0.0144122817819251,-0.3511196195758868,-0.1199546889486546,10.27391234184009,0.0995589840302,-0.0241718751802952,-0.0430902220084526
526,5260,-0.0360371790413485,0.024085384961888,-0.0256816811704083,-0.0115921685774081,-0.1926904033037805,-0.2972531547839885,10.133656808194631,0.104498954967387,-0.0538410814354684,-0.0553008605582838
527,5270,-0.0302231866079234,0.0022368693521827,-0.0221260081872715,-0.0205747130401387,-0.4129205976362883,-0.2807514554718279,10.373075195564695,0.0696966662979059,-0.0361070021441952,-0.0285668985671099
528,5280,-0.0627874989829872,0.0091825214592523,-0.0097029672376739,-0.0183937395604032,-0.0237517844944995,-0.1561867265010406,10.397564608036625,0.058486590334397,-0.0204279691174594,-0.0578402738022153
529,5290,-0.0439451614134187,-0.0001759799844337,-0.0411672211758823,0.0038494468122456,-0.1859862492827485,-0.0935541394894053,10.22356876344998,0.0924068756378494,-0.0257388480420077,-0.0367270824985533
530,5300,-0.0240976931209468,0.0271679183395863,-0.0210865318709609,0.0083371320937087,-0.274285341587893,-0.2534000188651641,10.267968707254433,0.0754782307426721,-0.0142058090979309,-0.0533554154020623
531,5310,-0.050797456502645,-0.0125345398366356,-0.0314521087245598,-0.0006680851979179,-0.3105671472706109,-0.2589157231720792,9.816266996798984,0.10734886571905,-0.0231334011085553,-0.0600822502640159
532,5320,-0.0262329835294625,0.005785408530971,-0.0167739030662134,-0.0003725445742576,-0.3360198701170948,-0.2038323301127439,10.245182564755575,0.0508336346677194,-0.039890315702268,-0.0364318321164968
533,5330,-0.0494827430081756,0.0167129148058902,-0.0286489010467403,0.0089227622527028,-0.2145550570156557,-0.3713191326803924,10.097677722659222,0.1551640283502434,-0.0433305266558168,-0.0119017618722061
534,5340,-0.047644472799919,0.0103124312186164,-0.0454158039810807,-0.0087676034153528,-0.1302989975766276,-0.2464503417655736,10.164100790888604,0.13923396203579,-0.0302793315797039,-0.0273181272647304
535,5350,-0.0305008854753371,0.0212885134739623,-0.0331515839407647,0.0009854106467965,-0.4082714029847657,-0.1123503828197116,10.284744678555766,0.0819983619119475,-0.0385851189676404,-0.0579424417339481
536,5360,-0.02663847510172,-0.0091638193326991,-0.0267678668546192,0.015854167901646,-0.4876118042326826,-0.1736404272954066,10.348685744629496,0.1090953608628579,-0.0259181518325996,-0.0765661681893642
537,5370,-0.0214765991526605,0.0222944903072971,-0.0205634051636892,-0.0005320895872665,-0.2885411930002357,-0.0604699828547759,10.476684393545964,0.1156911283769277,-0.0394760883627899,-0.0797587179500629
538,5380,-0.0460117117207723,0.0080842617825656,-0.0155755689642613,-0.0024699168930141,-0.1055661935874903,-0.1254105969905424,10.339489623700178,0.0937280979122607,-0.0381282494566804,-0.0878407073424797
539,5390,-0.0302225775953181,0.0098188393134072,-0.0288759686502613,0.0038562332005351,-0.2675820113494138,-0.1955457223099787,10.244116462364204,0.0765444002857557,-0.026030399204114,-0.0991036495099275
540,5400,-0.0464933653123292,0.0177014209240667,-0.0095651193822632,0.0035647307141086,-0.0773247400660226,-0.2354479943505806,10.290661439717905,0.0699517614787985,-0.039925044227521,-0.020511367988799
541,5410,-0.0191518082327505,0.0273735087866502,-0.0109040641984809,0.0002764060791774,-0.1252230246611635,-0.2878701767443893,10.461884941062532,0.0549428562643199,-0.0442891396697616,-0.0147879470968084
542,5420,-0.0185962572774466,0.0294159344437581,-0.0202670739606584,0.0063758465515897,-0.1234159843982574,-0.2635714566895572,10.265235408979503,0.0865320230461814,-0.0278415849593183,-0.0676534617462365
543,5430,-0.0197797617162452,0.0189049566137833,-0.0289300656791556,-0.0015784647178045,-0.2303680422554147,-0.3392847093955685,10.487691238502432,0.0784060131618808,-0.0310875144088067,-0.0429881322885607
544,5440,-0.0406899198239504,0.0070609426326593,-0.021230838400166,0.0012165785129094,-0.1738626327103266,-0.1362734543967456,10.11005572746746,0.0888165020155469,-0.0335552357059495,-0.0744571937484767
545,5450,-0.0329048882025471,0.0202282020468032,-0.0136156794320288,0.0045436890064011,-0.1485018101363841,-0.2144427515277577,10.314840912948084,0.1141863993791391,-0.0254985164411041,-0.0335134896594099
546,5460,-0.0274445854162868,0.0244969712912969,-0.008710322360908,0.0136932962416503,-0.0432015591210517,-0.3034040318175853,10.182406360150695,0.1044280222430426,-0.0134904435240094,-0.0721340265993945
547,5470,-0.0155548598021716,0.0196192571216557,0.0120156532068047,0.0237321923586559,-0.060445519939738,-0.3049884011031776,10.627663580547756,0.0655375078333116,-0.0270904650377773,-0.0939661971169238
548,5480,-0.0033663507039502,0.0259189363518818,-0.0066282613728023,0.0454513768756903,-0.1644749523246302,-0.1871353743073935,10.337808157661293,0.0926063049131837,-0.0283469620391043,-0.0738276346412691
549,5490,-0.0066873503680494,0.0264043812276284,-0.0119148279915057,0.0068189992652079,-0.0586822405513316,-0.3531985317545725,10.330211927639516,0.0817521017522237,-0.0370433190781194,-0.0487960977159295
550,5500,-0.0296760540071286,0.0366302169823275,-0.0066233775752937,0.0381453370119323,-0.1527934908875316,-0.2523267053685503,9.8924229314779,0.0928560418690128,-0.0094777925105555,-0.0695567981002235
551,5510,-0.011549445350665,0.0443327247494614,0.0134202222313297,0.0410090976091155,-0.2391959543517463,-0.2772808038145772,10.282441627443443,0.0800095539581814,-0.0266274653360922,-0.0712104095778199
552,5520,-0.0148797977454953,0.0412776188025481,-0.0102047666596531,0.039725226249505,-0.1737524041899287,-0.2109981405815603,10.17900891922936,0.1144639923479568,-0.0149969182260602,-0.0422427761712786
553,5530,-0.0182897636321528,0.031738784293919,0.0085587437560959,0.0397270946049937,-0.127497749571499,-0.2656443731144894,10.019899850951628,0.0796027397661728,-0.0271127297648589,-0.0356350761874247
554,5540,-0.0055663415777983,0.0514954658833606,-0.0007156163634151,0.0434203221817182,-0.1355749120640591,-0.2034108667251447,10.294081136570464,0.1356201862801459,-0.028005156050332,-0.0517143822265978
555,5550,-0.0119680202747697,0.0391374239834216,0.0034934826506516,0.0316817895395659,-0.1683914521180136,-0.1671647274163149,9.969780789085176,0.0932863991140564,-0.0420563485083502,-0.0790337294483782
556,5560,-0.0308978549419211,0.032876810244152,0.012713855131142,0.0438449540250064,-0.1841531093081406,-0.112881363027043,10.369446303330196,0.0950368159497692,-0.0280245278039438,-0.0976258006575392
557,5570,0.0055691540516991,0.0586109240207141,0.0143257017035825,0.0253098193452949,-0.1938276436525015,-0.2513297960691645,10.233509694555163,0.067043713945502,-0.0217338022186933,-0.0262284292192518
558,5580,0.0026055022719185,0.0499603319136601,0.013037812578924,0.028232652117645,-0.123906379851499,-0.4131871286882387,10.458974178834794,0.0999778814332986,-0.0253447173622932,-0.0878569629547985
559,5590,-0.0209683238622825,0.0296150166094747,-0.0127638853547321,0.0296400082080021,-0.1972061487695471,-0.3740586708764825,10.109762233616369,0.1215754963551554,-0.0009924884036509,-0.0905266770674925
560,5600,0.0047437329036565,0.0500028120337766,0.0090291819821234,0.0307592044382508,0.0339119984506048,-0.2643702269411531,10.092415474530352,0.1123866242934662,-0.0184877932082002,-0.0862862948869012
561,5610,-0.0190372161981259,0.0449347434714309,0.007212290960849,0.0329248604477054,-0.1846778086925806,-0.2214393064612494,10.576318456901964,0.0885139852997206,-0.0042550876622635,-0.0691102575523708
562,5620,0.0121406727361449,0.0516595975610161,0.0072394877329177,0.048656481305537,-0.1479274672648551,-0.2040743150666202,10.182596821371328,0.0808193366432062,-0.0358992207616324,-0.0515067427716774
563,5630,-0.001014805430491,0.0576283891117805,0.0114334289113123,0.043056983546287,-0.134624341190684,-0.2075787383651779,10.267725148175913,0.0736403051442082,0.0034019985795592,-0.0918730316560442
564,5640,-0.0166351349278605,0.03883696497805,-0.0085007181110185,0.0202212876321093,-0.1230863670312276,-0.1734686181780453,10.321846923950394,0.0815140675386632,-0.0192501779431538,-0.1043435880334266
565,5650,-0.0074908297113758,0.0196419858381851,-0.0137144545304925,0.0167923259879665,-0.131676036684394,-0.2149784103489304,10.298342033582571,0.0810148366665279,-0.0183538002571744,-0.085855060617422
566,5660,-0.0173276992968718,0.0443083140101096,-0.0015870660890565,0.0304743442403959,-0.1463544710162444,-0.3453283747360854,10.345044870906824,0.0876246297277034,-0.0127709514938399,-0.0472592988862931
567,5670,-0.0320625525933994,0.0230318130927649,-0.0076362339973656,0.0424223473002932,-0.0734274049550568,-0.4253310057017405,10.32086789715026,0.0819218940135508,-0.0363628391501234,-0.0461022473568293
568,5680,-0.018131576486499,0.0441584777920958,-0.0183684416246141,0.0298858638877808,-0.1035707472131278,-0.2807029279769327,9.954975980918505,0.0829207930382717,-0.0057757264067538,-0.0734126931499139
569,5690,-0.0010134002284819,0.0453558095335837,-0.0060591983854795,0.034578873669992,-0.0647231262708146,-0.2659564025463225,10.180277275946455,0.1084010407794651,-0.0202831027504343,-0.1096567367986123
570,5700,-0.0260145288519548,0.0528808080417924,0.0124496126430557,0.0395549230025717,-0.0811181646913156,-0.311003374446309,10.262339903860177,0.1161861467627253,-0.0187740456196857,-0.0995894058970973
571,5710,-0.0115941917507181,0.033109900257683,0.0106860567486446,0.0297178855966392,-0.1282432338315863,-0.2335560765296538,10.50014069250446,0.1064652115226927,-0.0010334092260077,-0.0586159021910591
572,5720,-0.0256346072006436,0.0489530678637266,-0.0127561312656166,0.0273624378145376,-0.2765002847793383,-0.2916992601772148,10.577398032247451,0.0993750483047204,-0.0168178858462162,-0.1369697140394107
573,5730,-0.0254545294901593,0.0265711522985637,-0.0104606719233847,0.0261428148612047,0.0010293072807094,-0.2192118375250152,10.001988463880007,0.0559875809771507,-0.0120087966148369,-0.0614407839004798
574,5740,-0.0218396507212614,0.0377750366623829,-0.0263424133862575,0.0357719956608653,-0.0557643808542494,-0.254120214817628,10.478050334101178,0.1135193285620457,-0.0217855009448576,-0.0851658495616346
575,5750,-0.0297840045392179,0.0598326873771479,-0.0168999724047875,0.0265194894352019,-0.136701773157693,-0.30494263882507,10.48132971991884,0.1253565270607055,-0.0094780213799344,-0.0579106689590794
576,5760,-0.0278790809614444,0.0569588702567687,-0.0064702291537765,0.0345236078751698,-0.173224475816155,-0.2703333947588559,10.437434544138718,0.0873635926130767,-0.0130999784797728,-0.0363615639524259
577,5770,-0.0245770079154856,0.0396400089392675,-0.0025419697417659,0.0397561200814341,0.0615875251028784,-0.2697053248789978,10.27870317429202,0.1209381322743073,-0.0154546088551619,-0.0771730379649826
578,5780,-0.0299042294773386,0.0405371022657525,-0.0073911941222037,0.0247515468724554,-0.1139132882800371,-0.1078223176233877,10.551910992493632,0.1088637061683384,-0.0141850520404367,-0.113383247540329
579,5790,-0.0135604104239807,0.0458415944626351,0.0027675062033052,0.0498189108699887,-0.003945254024394,-0.1809015212662165,10.176277636098682,0.0663633039993617,-0.0020083246953057,-0.0991943833897915
580,5800,-0.0275531017583708,0.0404955011297536,-0.0076711898558117,0.0339327992181639,-0.2002529863608709,-0.4366402114664012,10.464122467196349,0.0817853328454123,-0.0226659143517523,-0.0684155301569307
581,5810,-0.0259647078251342,0.0557807272844722,0.0001327602669536,0.019234913058357,0.0586207228789864,-0.1744257978917421,10.507926222576126,0.1126634569689135,-0.0152610254527236,-0.0945690334606645
582,5820,0.0088076039085812,0.0491368325316308,0.003920891050527,0.0472097600360117,-0.0262211652057644,-0.2682522534519888,10.4465060314469,0.0905584272198747,-0.0181453596290384,-0.0700937164414256
583,5830,-0.0140503704157013,0.055188453092483,-0.0023211154450689,0.0456430537567308,-0.1806305697777877,-0.2560228068170927,10.283183247644542,0.110228812721234,-0.0228876413785164,-0.075694202218406
584,5840,-0.0270857737008734,0.0560634906797756,-0.0163576092780381,0.03087203139605,-0.0479166120936004,-0.2791825370394077,9.80117115983877,0.1260842821490556,-0.0115856565807878,-0.057511908882624
585,5850,-0.0259661764702444,0.0173256801417602,-0.0139854296301299,0.0229890643339814,-0.0365625215981348,-0.3480357609755466,10.35667574029632,0.0883492334590381,-0.0118029096403789,-0.0558260463781095
586,5860,-0.0029556798925998,0.0480862368748253,0.0015506032386796,0.046972771490352,-0.0310819180683287,-0.43977361406236,10.76264020128566,0.104850821734746,-0.0260455478093943,-0.0915426114720822
587,5870,-0.0426382194001611,0.0698137041824664,0.0074953564015324,0.0151478876011536,-0.0422058942340611,-0.4409402927657074,10.47814025248666,0.0961722604742542,-0.0055671714695585,-0.067959338005743
588,5880,-0.0069255008085097,0.0538468448093306,-0.0077777520676695,0.0448478038531375,-0.0749233649911487,-0.1437046294126439,10.327526708993656,0.1188096835045543,-0.0015562334918203,-0.0873826368001641
589,5890,-0.0210976222571635,0.044091794531432,-0.0069323937114321,0.011050839860567,-0.0261793654906681,-0.3184943426965774,10.299807701991412,0.068897200849803,-0.0064691768470289,-0.0794949420839652
